{
  "name": "title",
  "schemaVersion": "Psych-DS 0.4.0",
  "@context": "https://schema.org",
  "@type": "Dataset",
  "description": "Dataset generated using JsPsych",
  "author": [],
  "variableMeasured": [
    {
      "@type": "PropertyValue",
      "name": "trial_type",
      "description": "The name of the plugin used to run the trial.",
      "value": "string",
      "levels": [
        "html-keyboard-response",
        "survey",
        "chat"
      ]
    },
    {
      "@type": "PropertyValue",
      "name": "trial_index",
      "description": "The index of the current trial across the whole experiment.",
      "value": "numeric",
      "minValue": 0,
      "maxValue": 11
    },
    {
      "@type": "PropertyValue",
      "name": "time_elapsed",
      "description": "The number of milliseconds between the start of the experiment and when the trial ended.",
      "value": "numeric",
      "minValue": 2266,
      "maxValue": 1672512
    },
    {
      "@type": "PropertyValue",
      "name": "rt",
      "description": "The response time in milliseconds for the participant to make a response. The time is measured from when the stimulus first appears on the screen until the participant's response.",
      "value": "number",
      "minValue": 588,
      "maxValue": 27225
    },
    {
      "@type": "PropertyValue",
      "name": "stimulus",
      "description": "The HTML content that was displayed on the screen.",
      "value": "string",
      "levels": [
        "Welcome to the experiment! Press any key to begin.",
        "\n                <p> In this experiment, you will ...",
        "\n        <p> You will be conversing with a chatbot...",
        "\n        <p> Great job! You have completed the con...",
        "\n        <p> You have completed the experiment! Th..."
      ]
    },
    {
      "@type": "PropertyValue",
      "name": "response",
      "description": "Indicates which key the participant pressed.",
      "value": "number",
      "minValue": null,
      "maxValue": null,
      "levels": [
        "{\"topicChoice\":\"the atomic bombings of Hiroshima a...",
        "{\"rating-democrats-post\":null,\"interacting-with-de...",
        "{\"rating-republicans-post\":null,\"interacting-with-...",
        "{\"bombing-openmindedness-post\":{\"bombing-openminde...",
        "{\"free-response\":\" t\",\"willing-to-converse-likert-..."
      ]
    },
    {
      "@type": "PropertyValue",
      "name": "phase",
      "description": "unknown",
      "value": "string",
      "levels": [
        "welcome-message",
        "convo-instructions",
        "pre-convo-survey",
        "pre-bot-break",
        "pre-convo-instructions",
        "post-convo-break",
        "post-convo-no-political-affiliation-survey",
        "post-convo-bombings-survey",
        "post-convo-last-questions-survey",
        "goodbye"
      ]
    },
    {
      "@type": "PropertyValue",
      "name": "internal_node_id",
      "description": "unknown",
      "value": "string",
      "levels": [
        "0.0-0.0",
        "0.0-1.0",
        "0.0-2.0",
        "0.0-3.0",
        "0.0-4.0",
        "0.0-5.0",
        "0.0-6.0",
        "0.0-10.0-0.0",
        "0.0-10.0-1.0",
        "0.0-14.0-0.0",
        "0.0-18.0",
        "0.0-19.0"
      ]
    },
    {
      "@type": "PropertyValue",
      "name": "rowAsString",
      "description": "unknown",
      "value": "string",
      "levels": [
        "{\"row\":\"The bombings were morally wrong\"}"
      ]
    },
    {
      "@type": "PropertyValue",
      "name": "logs",
      "description": "unknown",
      "value": "string",
      "levels": [
        "[{\"role\":\"system\",\"content\":\"\\tYou are a researche..."
      ]
    }
  ]
}