[{"device_id":"ed812fc33d145bfb870d47b64ec9702b3456f6640af448d78b1a6d85112fa300","trial_type":"initialize-camera","trial_index":0,"plugin_version":"2.0.0","time_elapsed":344},{"rt":null,"stimulus":"<div style=\"width:100vw; height:100vh; position: relative;\">\n                  <div style=\"width:15px; height:15px; border-radius:15px; background-color: #000; position:absolute; top: [object Object]%; left: [object Object]%;\"></div>\n                  </div>","response":null,"trial_type":"html-keyboard-response","trial_index":1,"plugin_version":"2.0.0","time_elapsed":2347,"record_video_data":"GkXfo59ChoEBQveBAULygQRC84EIQoKEd2VibUKHgQRChYECGFOAZwH/////////FUmpZpkq17GDD0JATYCGQ2hyb21lV0GGQ2hyb21lFlSua6uuqdeBAXPFh+asKnLqlkODgQFV7oEBhoVWX1ZQOOCMsIICgLqCAeBTwIEBH0O2dQH/////////54EAoyE5V4EAAIDw9wKdASqAAuABAAcIhYWImYSIAgN8jyEn/csDHov+6/3j/Af8H+5f/X27/gf8n8jOYdrH/m/kl8Av4x/H/7L/S/2B/qv//8cXOY2v6gf5L/Rv9J/eP87+f/0f/1eTlQB/iP9G/3v+M/yn/N/0HSqdoeoH9D/9r2Sf9H/V/13+b/+vrB+if9n/N/4r4B/zT+v/5f+//3X/bfv/4oX71eyrWl0g3QP3V6iowL5NA6ZCuH5HcIb1q9Cj+mfi9+NfQoEhf2L8wP8rui39J/LzrBcx/+6ej3/V/bN7Zfp7/Z+wH+Nfxb+s/1P+6/5v+0f/LmAf0L/nGzbWKZ/sZ8woWeZfOH6X5A+Nz+50s/Df+Dycumf+V+Zn+k+av/I/7P+v/c35UfqH/we4P+sP+S/wf+M/5P+X+iP/W/8H+l93P9y/3f/a/w3/N+A387/vH+1/wn7yfMT/6fVN/lfUG/t3+d6zv0B/Lh/b34Mv6h/uP/X/rvgI/on+B/6P5//+Hw/+Nf+e///i1/Bf6n/F/IzzH/S/uf8n/h/8z/nv8D/9/9x///z9/Uf9n/Sd6z4j+w/6f+j/1f/W/f/5B/mH3p/F/3b/M/7n/A/uN+BP8P/nf6v9y/8n+5XsX+yfzn/B/0P7g/4X9wfsF/JP5z/ff7p/jP9H/fv3C95v/U/2v+o/5HhB25/5/+i/0n/O/f/6Bfaf6z/lv8B/l/+F/fv3p+2r8j/tf6r94/cr+B/1v/O/OT/afYD/N/7B/rP8Z+4/99//X/X+///T4Jn5T/m/+z/Wfl79gP9M/wP/H/xv+k/7f+j///3K/7f/k/1v+u/+X+3///vE/dP9v/3f8//p//f/qP///8f0D/nX9m/1v+F/zH/T/yH///8338f//28fvj///cz/cj/8++vVt6q2SkzisAMR2aOiSV5861SMhKL5z+QOo5zDBOCZP8ZXCbc/y87KP8mF9frQUCU10lEJpPdmdh6Q6xkA7JxWaBkoJHfa/RwOgbKmKHA1TVZHc+zxYsnQ0LJdFlnHnncRZJmU2aPMqVYMoOLXce3lQLk+nU8M12Eenfm8e08hoSOBegidrZxCeLojJ6oRY9ILRCX6o3CtmEUzQ0LbsAP2a3f5uEpFG0/LcNaNT/tpXgqpfTkN7bQd+cb++wkB7RnFZnRwkhiMswJPzU6VKnD/IuuCFKjICiWdHFo8bpuoVgqLftHwBLJ0s0knAfPAw0lULr/QC3xbAe8kNtDd5biMrIqpZxmyV45MblL6nVw3WxEc50WE75hCvzrSdmssSCTjmRNZI8oWT7zJC4q4QrPqN0k1hwldJ9bXSrHulvnE6QrvCCVygo5n5QRIwSeOa/kASSInKBpYAq8Riv3cnlw6+pVRoWPutLOmNoBnegiDqmMCwVfTvs/XbGuoaFrmM4sOgFtLXe0CvcO0XXz0usej6mmRNnJxFsLLwfG3fUw/e8Yh06b1/nirWoeCbkZWW9Id6LfaLSKD54BCVya3QLX2IDCIrrAkjedjV9/JHIZdeidiwDha6wRa+d9pg3q6w/bNuPF7lJgN+KrxAKIiPm1Kzn4oPGdejU3c40qdjgdw6pGRKHNqAyZbC+IytobGTnmaSQB+sfj0/op82ZW3Mauua4S8Dg/RlEQziE3rwfHs/rligcuRw3NLYcGpwnQVC9x6qKUq+qdWzRMWT5CmaIi8oeKigMLXfVw4TBaHWsNEJa6sxhL350O839s7Yz7hsG9LFsnmd+odcvy9xu4NDSEP88iiZ8ZPgxV+Sjrm6acOXTjeDe8s4SlvrBOLi1VHMp1KU1BXcrJY4E9ugdOQy2wV5PEwPt0IoWCRPom7W7ggHBF+O/V3XTjnQnRZI4zK1ut4FzjKQIZ8z3kdwo/e1uBjIVh+mFbXKl8tM2kw5eMdVgtwXgDTZVwcORTjta5F656h5PLQaMVMvFqoImhbROX0fe5yTFW226AZ47N9Kn2sWW/ZMaikeKcrNEKCNP/AykzsLK4+0khyBsXsAJDPbUVnSWOGA1ltIRnNcqTGn6aUyNdNUoveJWQ2Z8jtDaHFaRGmys2VqZc2SgBApCmpmVfuRgxUayu4MznRy/HKPLTQInECAZ4B+JcyXwT/cQhKmDYJilwZvLTXqplKGh5NjRVHV2qYsaasZOsVw0MNOsikdzphZ7vFRIsUSK8y767ekIfHNdgLXa/Pfblh8dCeyeTn7ZFLEMGCQNh0H/XbbuQo3D4defM+KEvjluGwHjScM+1+8dPD+8cjyh1vzx7wvzm36vcmL/kb+nFd06GX3ajl/fqHx4aUKz1ZYaq7JcnD1wMVHdRw5DqNOXSO4hhlKBA2gE8LbLpMavX3wNB0c1yiJY4cuKSyPpkHA6qVUA+tUmUC37AxMN/0xCTc7qzzFbP5LZ/e8M+Ysk4/2X5WOChyeioeO2Yh4oPqTpWZMowvLO9R3L2Ho5D8WGMaViK74Jfh9hEFnBZb7aqP673j1VShbyyUK4Y/gDo3cdC+bK9PRfKYI8XczW0NbZI2oneGbB7N7wOzavxTE7ToJa0TuuYH/UoK5zS9FianUfoNEzPeJyoUaGvWnAhv3RIRAwAVzsgEq6eQvtOcg/IqD2dP9AzImnmpmSwRsoI/Jea2+sjr+QmwoHKRpiaSfDybVsiyjWLDyJQ0GyLSH5EpUgscUoTzMIbXC8HnvBFPSi43fQZBOdsiBN097qPJsbEVrZK7Re+/90d98Bc3hg+XkxqMlWC+a3wj+3ChE3nq1nilNHD6egYyqc3mcBz4/UhFcv3pc/yyAIgTMggXIjBgWN4DWG9TdeBmZlgsBbHhRtLxPuMhhie6wm1LGR8WTtAg/162btyNYa6w/l3d7UaqH+sq2XHOQ6X23lJq2OFvIfkQROt8c59Yq+HQX6D7jzhn2AyBAEaCoe0O2TQciLLAK7hE+JUXsqZJFMEuU7EFhcqlCblVVwwwwMiIRi0+VCyx7F3F0iXKtXq2YMbBmKjqgq0G3a5zVjAyjUszbkgrfy/B5nhA3L61hgURH+17CHAOHW0CI79PtzhM75m+87UiyW3othG3UODyuqV5mg1ZRKxImysvjagcYa38K2Zj+XDe65bv9sc6fY1TkaAMBFRVzlpvuocqtooIKOREIiLW8ZEMyFGT0XYwXLXtAVLraIKjaZ5hqlrgsDoX7VCJZvMJUW7sIil8Tx//M9DowMVIeAxUQc3HIT4umUk15ocQOmsutbjiWDmm/Zsbu22+40bUcD+M4CfImwl9QcXgpuD6JP2/p74aev04c5tw0JOI4IibheXvcbAlZUn7TuFuNyt7K4/xFz3+I0+4urC4L3JPem8ZLcQ7Wo8m28YCNln4w4JMl3MtSybSmAtyMWjXYjsfs8ZC2sNMYSOcMlE8tFqlB7eeH7ZZdcjhqb2JkoSDOy2n5DiwMj3Z9evprBOGJ+id8CzC+VEX8L7kTn/Cp356CID+etxKGAfNVhaX0SAQu4OVPZtr09Ma0SR/MRdL19ErLUb+92Kep7wPNympw/ovrly9KzfdkpXvMtJajNOf/JE6LE5oYEl38Cqetd/fd45wvKu4bkf5wgcBwSsEFKG6030PQs81alOs2uxpHwATHYDkMKzMP0Ju/Y532N83SM0sU6sWotsoAoxf/TS3CxwDkHRSGnG2IRlzOcVXnxIblD7rcuD+LARpbBqP8ZeBn9A6QnvwhJ5c7lw3FH8l4mSzWSx/dRLh9TQSwOTuifeBGjG2bOgkXlMtVL8OHNCyLW52fXktMFxtQfwPNs9FGT8lWJ39b9N1v+rvua1gAcPI9HV4EX9YQF9mciwL2FSWftF7F58DlJOY7cN0N+a5lmw3Lgsztw0OjywMoPZYcGIpD+FlNx9XK5HKmGlIeMxFlyiN7zTBKYUO408C2eZR4I/ZcVYuqFm6zABY5KVNX7mpMPs/jsMcJjfjVfJyucn7cysIXCb3r/cYVSCVvpRNzJDrc2NPxxPtI4/n+9oYzQZS2M66AhTuSSjrjiz4EzlPxRJSu/af/b6uRRWYBrnr+x8rtN9lFeS1pNt0Z9j8h3ltM/BDWl4g3z0aUWE+g8aAoJEpJTa1lI7d5SiGNoNI19FubXWseaTmlrRC0oEMA8CInstsqwhI/+CHHsPAcLDFLK23Vutjz0yMNgh9neVzlPBSyhtY/HdZy4oeYpMNZ/dlPAnDNMxAiMWBMLpDwOaNjwSXnqyADCGwm0GgGAfmo5FIG/EdExIFVgbOTet29KIpG2jsCz0ovlm9lq3wr/Ml846v3GQb55Sl61egMVJjP/5b1z3HGD1lB7J98a6/6NixcdplxULELhPvaDXjc1Abf36ozxH1eOBpML/qy9tO/Dhcy73rOkRygDPhckomf8ntJ90eEYaAhSw2jnzD0YUlvyaBE3GGO4uKZsAEnM5EdGCYVgbvUcE8y1/0Qw/ByCiPsDs9mCWEhKczzP66LqDoeyUH9GjnF2+1f967IC6NZNhSK7SE76R7DFbqkSi+0Um9WqAS2DkQFkInxBcVw4E8yvt4piwqT8gMZsBeYr7l6oQy61+TBdOjvkuP1fJW0znpTY1ZWh/BQvhMlu3mJ5a93ijjZT9SyOOw73f8aBN3zQtJm8xVGghlKXHvxuYA1d9oKSRCEfXj7JGmtqhlmoGfnxZZdaw0i8f9KnLdz/Jp0PzurB31nkxoq+5dI2QL4XRiKPqhfMxs8EnITCNKcyED9wW1NapOwDu5UYRKBuh79lQqwS6k+L89i0l0oNGCPCiF1suFwTaIXRwCjzWwC5zi2XylkEBU+YpUgr+e4NnK5C6AwA0Q+GvIh9+U1yz3FXmWlgHU7+0w+HDLFLsaMQ/pokW48VBK67yCZHlo6zqv99PG63NWxkvEgrFV15kFtKs2oYXbhM5/ufi6Vxpd1zcNBebh6h0sR7MLHRE8QE44KRKp9FKlQcFtqq1Hu8AoxpheKJqz0f/3HR2UIi/OGmWZPl/U/2eAtKrgmXb0WOF9ENqcNEHCUoabOowaThV/jLUM3Zz3hLPF2dVj6IP1XgdARjnECCI5v7qkHq+PEge3V2KWaL9+FMH4IHQgc+ZXoKXBvk0Q2+f5QNOtlx3+i8YVarOsVN4ir5UW58EmHxjjCnllGHFnSVQoFxgdkOCj9AGNeYzXHE7ngyTp5iq6aaqbDwelmavSoUi3q2duEDw/fwFvtWkdpP1FUgcFxl3MafFoO0Xco/l/V7DTx9EQskMCm8KR3UebSJXzmbkg9xw8l4LXFlXp90o7FfXPJ3tDhmmVZXKOYyxe6FuPXhS9oHKdOUBQ/su1aCsHfALXqrb/EMw80LwikovrU5ElDBJsUdEV61P8xMC4wlashFNKAYUAYj03i5ttFhrdBKzEd8Qd/H5LfSGe1LXf98PrlPcvDXxcQo89AR7vosW3V6dsQjv6JBMW9uEi83kbXEEhPcCnIXvN28H/eViI3PJVG51KOz2JZbY1YJh5I0ZKEJT5l+MEDblH9ki09KKMuzZNRwPQJLCry2d9N1dorWTkPma7g3jRfMpbqxRAyPVGwXDGbySBQMDgtyWDGPxAuguBqRTRIlxvvbNdrv67mbOEqpCXZWhWMlRcEfddlCazsg9K4IrK/t8HHh/+u7ugNLEodaG07I39731nC4NK+A+Gx3hxXQVpv+OhXweL0OB5f6DreY7zCZeq7IlnoPDBnixrj9NVZu9SqbauNtp1WdDZpCDjDUDlwgf+4PkBDHAbPXmws5r6CkZ/BANhlax2a6X6esw+vqyIk2aXWNjj89d7Jf4j0m0sX20YD9yri3I7M34Jx62Zk9y/Xh3OgMfDMK/g4n+EGGUyMhqQUv62vH9/KUutIcc3uJErmIi7VnPCgrsFS+BeXaZyZqg4opNrJnxWHi7UXzIQT9NBA9t+dskGJaIUo/pfkKEFk6HGucYvBAchiTct4p88Ar/djw1XXJOvEIqlRN9sGz0mxke4I4FFJYhAzY2xfrMGz+fZGzwNmP4wAM1SnWzZHlsGOSWvFycXU5OXBmjwdeE9zNaqsgfg3Kg7dz0LFW9Ar4LYlSjlZmKgvZKIVCtMDe7XKTjDlFleA5ujqLzNU7PLaZeOu436oYWdDb19Y8JllRWwv3Sq9Vol2hKQxjozCl4n0TrR3j4ZSuSZMfKe9Zc1g9TpNVSjxcyrOQHn6knXa4lnqOR5dTB1GqznB/isLVZeRR1vSn7jogEavQoqVZmXctlhCzwy6yv6YCP6BBvoNtpR7IugwPPTnfuKRJpau/Bna2DuecJCZL0NZnmuT3VlRw6UeLR/n1JiutPgw5wIAY8xAjaMLrXVnKxQoj6t90xgGuHqrdi2ptRUiq7KgVVXbcUbV0kQ+3xK+nsVkT/ORT6eecSD+/ekr4V642KDx14kcxNGJy/7Q5oxPvC07isA5De/qsaqpW/lrROKsE5dhwRUPShR8rmeIi2hV4lflrfTej+yhMzHRx02zkvNkG5P2LOFw1ggu7TFwzVNgbdKuCwDemhm1ow1CVskBLYtldiKhlVrFscUHzB2f3SeDzXXzucWr/2l3HDgFHn/kHL3qf1Zn/9qsRB3v2gSLJJ2LbQbvzr7mJoqbSF6j1RrB3u/3y+DDJ8VIJJmTcxrRL5pFKmgGvg7cTm2btZyRJqrVvLuNlYI9zq8HzP0nAIwaOlOfOsErw1dHbqqiI0RgcMLQNFR5nlxV8wq4V60GeKwKVPYJFlvnlvahNocsfMNCvTkpO3yEE72GEp9+FctIlFGc/78es0srIvVrHH0z9VD4Ss0ndtBRaAKaLz4CieWSWLFVJ4pc8ingAk3KWYGpgV+gjy5T3ur/156rZDYxQdGR0a7O/AzOKztZwrEFMQTMNRwwVVRlhvTgbSglsGgTt6WjvEFQ8MxOVVnl2wkIqDIOa0WI+qcrLE95CII4Wl31RBmAuCZqSsABu2cdjSYcBQaVsr9M2f5rsmuDpmDvO9BiSsrFGpW4kknHaTpZsZXdNfaNHZ58qwjn2DEk7+28eqVuOYQ+rkE7n/RocaQxrAhDtxyBhFI26BShe/6fb6OlTyLRZUClH6iaGKMA5n/zfoECJpDbV4twcbNG3rNVZQv33uC9SApET2ThouXUjfV/AoaUjodWPnIFugT7gX5V+9VhJSmTOS6Y/Sh0pU5ibwjRFbCtxuyJeT9898qsXTDvzSvb2MVCtF4oA2pjzFCshI7yxrrs9waK0S6tF+z/OiKQxUd7OLB8MWSCyKW+r8cgk4rJnlcEtl5kZO4jmGdJ8idGWjn2zyaiL1ZTsBjt0U7V3qRG9xZJbUhhg2/eKFOnR8QfsZ19QyVRp7IQjKmHG4yNGL2mQCuWBrPzfafacsIVu5TqTFaJ6DgfmDuvtSOqB1VWLQud1q2gTAslb7eKwd5Gt6NTs01cHSf4iPLkL6AYrNaWInBr1X2pTtrfqQe/UzaB3Nz0RMbge/bJrHiG4wZi/PTYe3U0eeHj5PlL7F4qnRRPgcvk8tdhEKhrOPJ4xTL63RSA/FSLivf/rmwngbIGPWPoomuY5B4p+RqD1vzXcLQAQ1C63Uy7YsEyUf2xRQojnMWCagEAiy41AyLnziITMyav0+FSR7sXJoMuwXm/3VIF8wOctZPFmcK6BDwHOr29Z2CqlKQxfu7GOY04ivBs5i/ihjk3JpKZxvlljCtNNnktvsNYzKRYNqmx5tloeWnuIymmgDdiCpCxzIVS8jtRVKiiunRxtuisXOWr0COYOlVijc0x5453PhBLkAaFeDmuPpBXFzf46ePbDroB8qU+bFLKkx6SbqmZ3XCzND1aXGsSA7j/Y32UcRqdJfSGU2i0yfIG5lW7r+l+ZkCqzfmEqrQ5XYh8gITWGCdkwNbg9bBUbzLU0GMZpbNGf05jsMwmu1vtJpZSMX9Rkz6SkkuSRaj4T2JEecmxT0NQSH5+fOT8UaJmknAzDi+YUM79Yl1gyiL8c6ECmzocCjQuvew3EBWZhPeyBkdOwX0mtyHPLcOXG9EIwl/qHVtZ/usxnmvF3BYaPzO8i11yhcNK9blBwZVZ6yiciB+WLMbiF6PUF0/SLR+4cqSwUgmRj/GVXRFLX2RFO7rA6oPNIzK5bseL6+vfdDIZYd9A1PN7BPpHPwma+HV6gZxgP7+4ynlBLqkEa0mxIiSYbY1D+45SKAxfD/KVL5rkmQHAwGioIYKxeeDCSuCXk2MQhmuU2DN0q15c6dB/90Nvoht+bbK5BgLm7exAMsZ4zNL3ukVuJ+GRmYPbrzfeCQAHmMiy2TA62po3OVBV9Sa8UcDkKW58Oghl//COT+SXptZvbncPgEiboFDnAAhxcb97xKWp+ljE1d40Peh0i/aJpnr2NXBC80JJZNYpz8DEARgfsyFgS/XdUQkxFitVRpC2ScMgvwp7arZHoghcAcQY6LLKP2WE+kAGnSORi5o9QHaiqkGgiJbtLtnz9gLBgrcOvmddDqmPJZ8fDSVAX9q2Y8mL+RBmLOj/4f5FWR0hUSf81+UauF71D+7JTg4tWDKUME9MAvKD/y1JRr4oUi07rE0geKi8unlT5Kbh+GV5gxaDSfA7DswLSg62icmXyiNBHILFvviwPWaVQXAb95O19QwLTxfnqlIWtZuCoUF6GZHoATrdV8wQtEEiDQFAhPp3dKkzUiUWumbyIpV+ME2NIdTMykgZ6dLIpNq1+CDehy2m2FHzIYX7rROiaE3fRLDuWkSSUEW3uSNq6LFf0aLJnCs2JqqDSp9mi9S49FC1VhaymlZcfeFqNzueh9FfCW6cw2NGtoQfeZ/ZlYey/ROCe50YTSoNz5QY8AlTWrzhJ3kF4/4aqYPqAafwFdDHvDnDBTTb3LRtkbWJaHyCRIqP3VqtZXzqfWPZ5fXQHj+CAbCdZ4g993PU01Ka8835o5syYUsaBiEKfyiwHkg3yns3NL8Rc/HNubC4TZLAGOQLng5q6jn453r0CrgG7772a1hju7JcHWuUQguim4np7YMwyoCAVDd6UXSg5eXvRe85n966fOjPrW8NbtwJFNSWr9TY+K6JOGyKK4m8Puvuk/qeOE9BAHkuFpbAiY/hMWAek2gs7/sTmfPx1mXUFxoi3M7DAkJJJGhxWjjsvnQkC0rZJ+YpbBB0Bj8xvg6qG+1jhWGisMjhkAF/8EIA66WIG3Uryrlx3cJe2NzUgvR/mbkiqKGRQumh1aQ3O2p2BslamtMOHHhf0I+T8WkoMddwheM6uGoM3mxpbJteLHQmX/5AY2RzjfBK/7ilAVZvVZw4rCrmyVIaJqwWMKAtvkrHR6GstucAWaF8Nq5tudEre3j+TkyEtY/tCeHSTGhNQp4ur6AtdDxojiw9XSHj3x7n6s3wQDSrYdkYxhCPZMReR+woLTCRGBrPKoyJEiz24reY+JK1A+ZxmFoDAgi9gJYGSoRpMGXYSWG549E0CN0lb04iQzT4B045PAAaDgABx/KMOjokAhEsh6eh4acnIAQosIQPIAJOtrGAYAATfUkGIe7M5j/wAtT6KO12VQhwsW5TMXqAJnxoEqkLIkaTOrlcP4uZU5Pgs0egyDlA8FyWA+ghk6G7mBNGxMwWRaE8UbA+wtRI0Eccrn7H9MGg9g0ALqLNQCR7BPdAAKgRArnJh70Eiu9giumDnwACLoDsAwdAr25wAF3kmUlWAEheACrNWgOjlSQADM6ajv4Hh9qYA5DDgPL0nwSiD3f4EpVIENzL4AVRgcBIpLwwE/uy5oCR2GEaYyEmAJzl+ArvGJSqhZV7a+iiEPJ7kzprcfoRjVWe1uyg/T5kevqjNmEVXFg0IdxlEA5aTI40283ELRkG0w2AsmzFp5sc1Tkyb6WFnXnnJgehb1uPQylHTmjpfAqc8ksxBYrhytCrBcEykYsOsTgGKCNwA+TIPSmles4pBDFBOQKcoun70/fiUH4COqx42nDPsXSB7vuWtgckRruc5POXuIK5B57w04zpDIh0/ylMc6VaebeGiriaRLH785cyXJ5gCSLER6if3HgyYQSjHXBMyT/Br3Up53GCTZAzivRCRtOa0hSYMFtUdpgqwGaci0ckh2wR+9XoNxN+CE1OHMogRf7LN0j/62PRYn7E4bH5erAhX8wyj4EJUbVXRyTrx27uK12X+YhWlZ0zra4WnZxeWu/ROhckUT4MDylHEAe6Drnqt2AY8E5+iDUQEzp3hBxfuh73WX5ARqJJQycC8BCE6jA9Y/IBXXzRufAGgsSMgMXVtHdhRvCNgiJHqjkgRVjmaABycttymA6YMWABCgGisa5QB1LubBBaxdRsSOBeojjs8pw8AADDAEZgQrDTEEDyszwUhYAzkoAARgENMHF1BybdgUh04AANj1iAF0A7YME4DmVwdvgAA6+m0k7gHBgsBK3dGDCLFeyQAZBAQI3gAEoothGyIgARDxoIABQs3vMNbAAAEubScQAAGwSg+3pL23/sUU5dPgpHy4S8L+hyHd4FgW9v/NLwW8Bg5M4dzoDv31UdiOO3ZugvduwEQcoAMGO8F/ccBj1qDsTN8dwPumKZv5O1PikmOf5IAAADfXGi/dARkAA8FZIAGOyo4l4qAKz9EwgQnrFCIPgAfQmQnsSORwX3g11nZdmcQaIzkmYtg7io7sEIJND01eSmT6xDtTOEpdKz9++BtJ+J2YnVl2iXloGAM8Q4Y6YwiGiYUl+Rmq6hm3iBKl7HGhd9KetcgMEyNzJttD/y5m7Oh6dNTfQmm02LliUTcn5pLHCFaIStuUJDz3Yeej8VCx1SnWlmleR3m892PpmKWZ/IhPKDGVIh7jXBWIWld0E3oNv/aWfYm6YKZNg+64oqrtP8BH1si6H/n3ax0qI4TEeEFoFIQodOsLj3Qayz2BA6KMd8Ee2rDdGj2X/p00gjIufamSQ0m4RvHgdka2tNJaKPSlvKx1MLjwcCVPQFk6b1oFuEuIxugs/6S5e9TLnqBW+kAYxFYVFyoAsjUmpjqhFW6gX4VRvHc0DVz3iNWI1mAKegERn5yH4PBdnbtUtYxUp1VIZ5vXIBX6ygGpAv0MEoKOQ/wiQXeyBgRW2GzK6QOKFi5RCvuPGdtfvAe+DhQkcUyZs/nwAABayAAAQPusGjS7ng7rrFL7uQJpS/QrwwhBCNHwXh8/F4brtGgEzdn00ELPDMs/BjkR4JYCbdxEEmGXZxDD+0o996SNEJayWR3xrPwKGFPT8+tZgemAwShADvTFBeWQV5yK+GopG7UOIcV+qEpH0I5zRMpw9T/86dQJmSFgAGMJgDgcu+VMkuGVzzYX1IT/mNZFdILnH7lNLKDGK6OSDPIqOIGIXnWOwAT7iuTAuK2Ii1WTieaNFlbYNOtlAc9TL94hN+Y2j9EUzPR1Mqr8KDAB0AIawA9zezAyCH3Qa7f4ET8udEWKa7IKQm/fZns5SmIzNR+kRAnUyvyCCA5qmgAtbAQCNOcDIpZZyI6JYYU7+w8ElUPWh+wp5Z4prDTtXotBqSNf9USWJfkMCkMhU9dgeXtVmm+wAEVHk5hX3ZXhyl4jPrqa/TrrL9m9NxdDwBI28hWYi9wAAKaFIyWBIcLT6PdDyj4GRgD0yx/bUPRLIXmqq0ZILtX2Stbqp5XD0emlmG5CwimVBAaZPL4jkH2vymlrAfn/RMZSBpmpHwXH2/yuYIwgtpE1VgEg/MZIF3ACT0jnKB5a0zzzi6ExVoX2Z3q/eJ9BS5MAwEUJhCuAv95Ni6BGUa9Qqiy/tkuNRWBT74U7O3ANHyawiaFq4k+H6gyHu8QavrMtuHkdSQkHpuFrABp/CFgi1+0n6/ENVpGwhJyLt7StwYWaG08C9ADp2sqCpiVXgREcgEWp+V5TxRDFunJqho/Xm5hLWwntiuzOpHjK3ezfASbVy0GiQOK9elMn4Uq/sz2rxNYnkkV+w3/eQXX133THShk7pcYOCG4Tq3jkuvdzs5SjMiUMaUfk7Vidw+vizoMtsO4PPfI7rYcmEJNToU48fN9G3G33TpzrZuFxrlKR8Igo/ul5vOW+BYZUPySDcx44aSt5WD82tozhb8XRXlDeRV61l6Pr2lvE5x6CaiGpstACAHcfaxcKb6d/DfiEEuUSKcopavSCkZJa9A3Z82MdvGPOFwURHt8MbXFo7L6VCwKBCjsZxocjlabw0Dd/8Vfgn9X50SIckDrjR+nwuI2FHFn6k8QgRAi+xBmXEfFoHviADaR0L8EoLxKxEHtQQEj87z5v7jHLtRxw7dfVJ8KQbL0a8lnntgC8hg78k5rqa+iZy4Ktm8blQMdiAfFtUK4V3ISRlEHHj6duoSemrQTOFbd8YZyWjrjYE8fA8gAb3wOwAaIeInkejpMVh7ny8t64zasLq5BebjiGj3mkyt8atWfdy5qzkOAYEQCOAtkOJLs0uReloA/jAoHoIYENaqgGZnmd9zxku7ywrDiFqjt0JMiUGaSmRUPVmA9JykXFUdc5+hqhIyQM4z2DU1YR89ymXh8frsAO9nA0Ay2ghQAQoM+SBWM4+F2kPr4LnvI46nswdHqvj6p1DwiPS184YAn3iAQ0EZLF2AaAYuY0IokqwVqkGMD/gCAoAM/AhftOkkSIBJBPS2CvgAAAjgADAQrwAAHOznQAFVoBN8hw5hFEz4ACSrAIIDOpwAAA1T78YNMzKDtgAARGOlyRwAAAbellQEBCqUuaFAAUcrwcj7l6MrtwoDPgHZGW+8dMkgFiShwBCsBAAAUq0dCpkAqymWIiXIb+rcX7MymNfs78Dth0qpf+JqeZPCG4Fxtcf0QLxFy0TsgTfi5P2DNeMeOOwc4JZDE4ixx8UjRJw8DUVCUh35M5j34AhigBYFDk9noW4ckutrL+bl4IdPJwh6m18UjMP+yXACrnRF2kASCABgRYoALFoMHpK1uYwzSwm13dY4Z2BEhSFfgDWR2xq28bVkBYSFeNeYfGARiizvpoP8JXKwZJLE6/kh3pfj/5k4txM7OfFMUuE8+hUgjc/hnHjF8PxnAnNLXIMJ2lplr6ccUkRGY802N/wmhVGtUJYn37o7Lf1HeVVab2FzE8lMmCD01XDef7V0LYAhyWZGNVXYUiR40KxwsWTpYFcQLWY0UhsTwsv22xPadMUGghYbIXTdbgeBrqrU2dKJ2c+kDdw9/P2hnzEJpBHrDpjOX/bw386sF578IlJhWtpvF3moAYxeZVVSMk2NYKnMEx/zuUyps//BXQnGHOvNFzvblx5USuEwcL9u/VNi/WcSsZ4YXlrlmE/SmsAJjmW3g7hGYAM0Dcf4qhyfinMG5FyWGx8/LlzXgZIKUyEAIUAaHpdykAAAAAmMmC4QRfkAvp7QAGsandCgzga/ACn+CqBQEICoX+2P8gnW2R7mg0f/wGdPJUsRfylY2Dc23039sXTu0wTO3UKIkh0hNPs0zAqnGhmV667wiVbAOCbKwgtQ1WGOwYokugAuw5kJoAEAhR6gmwAA5ss2QANeAA59U9qgzrD5Khsz4Ii0ONt3QRySFJKPqwY3FYAScARjZAAF2hejwZoi5kWRunC/BPjJMOM6PgMwaKpAAAwjVJSh5ai3bPD396lGZJaBTIIylPR69gRxAAANguf9IAAAAGkAABFAGwJmqCFmtiAAfg9+hVPFblIAMCjiBfoidhvphXMH/fWbGy878nKYjlI4dw3gzZVj13nFVcAX8CDxq5El+zgIsbHeYd+5eaiVYroFFhPLYeStENwhVYO/Xqklql518Qk/SjDZ5O15KHFszLVEI6V+J1q8MJillV0bYAqFDLpONmLmJVHyCcqLGvtdy0ITFXWK8Rx1XrHauFkGs1A3ITizpM/3Yotilv3g5pPkOGNjiKoeg8A8MMVhugtH7op71WWRgrZy6nI21kwvhi/B02M2iDcb4Nri6ELEdQ4+gtnUbZhrZS9/cR3N6p7zEyESZJoA8fZkbdYvBie5iborpqi6GybNnEnskyTsDVFjYcK43kOopypnckIdPbkNdUsAW44V61b5/RpqxSgbSjp/008F4dC9J7gYducpbtnMjRUpM0ugktNx7ZPEV11RG9nXTFcXr9N6GNIdQ4j7PLcT2As0BcKt/Spm9k9CIBjCegF3AqsoZDCAANhqgNOcAagJwMnAw+AAdYCo/+AJEQABGX2exmS/PC7CzCFfxBYHWyDiXBBAva8AyHUmgXf0Dn32BV2vOS5+1zkADRFUy9vlkNxgAUSezqoGxpG52itjukopb2MpheWvQN1NEPRaCCytruAJxpVwCxKQpsRWgBxknICnqIDXgZV+UEGKiruqK8nyIue647iwKBkk3UAAcqGGIV2DvuekEdbyNtRNPUs8hosDJqAUBzNWIDVzeGVGAADw8PsdsBJSyAFKAOsBGT0cAI0h25tY4BXfQBSPBn1cA6HEpIAJdQAAHsQqWOQXvQWrJXDrsFpoADPRhQxzADxkWAmalABcwFuoABYABeEG7px62TTZChl48wRlTA9gPCdYjDZFJJA4wEgIJJC1IE2lMsA8YAL5yyylA00qMMiYNppcZM/bBNwmcL8gK3IEH4VGpRZUiwSYpxpi/WYphdAz4y0GtNlqDqAel/5ZxxArV631XByYp0i48sHrLcj81cC+fivnbpJEYwsVDrbnv6ihnYF3DyBkj3X0+j8ADqlxMJqwcI26AA0S/w9MdwI6XOAANqBAAnptKS8E+CUGXgRoCRRbKodXa4SvXn1H32JzKX3JdMA9LZmKPzQPEMmKOrg33+hpQeIDojInEShcKA+RmS1sOExfl5toPlBwJBf51mDwxfksAZkS+qcHRXeGC0hxD5AJaffS1lDay1dqs5MW404rz0limggQTBNw8OgHX3gJazTd0Ids3dV5LxJXX8Rh/yL4KMC6YnkT3c7Zn19Np0HN7gxjXMHYxopKlI/va98XJudu+WGx+ciAVaM2omqhOz0RnH5WJRCicsq8Bjhh7+B831JaFHO7ZwOmWr28K69R2zi6qArOqlUaeVsxTlQLjmvCeSUcs9HoNfWov3fIHNAmAIBGGSFy/2o7NEfinNYZgG22VfhhIZHPGhApYAE++FJJvALHVdkwh4AJFFBvvKHskCxAAHLUEL8eovl940b4i6CdwAw+WtQ8jewiAGars1JaeJ94xQy6wnaGd+MXJacpB2pZljcLpLXDg38F2cmJ7JSHTbGRe8kEYpFheur9gSSmSAP5vdk/hlrv9rY7Kv0sZinZla9TVYlzs0lDUz2+TjYpjSGoFYt194q+uAVcLirewm0lKGGL0wB4AAADKzAUdwAAFeAPjBseAAHlQTTF5IDuQFEpyAHFTqAB4owCzwpFR1fhwZOACPhVkMIFcFOJ7qDFNW6kC7hk6ksABpQAAAAk5Lz0J9eFMnNP1gOOCaFq0pQHBAuKFVgBXkjXWADgLH8AG3r9xLkXaNVo1CFjz7M5MDGAesQCUSJhQFGg2dqDEKFhTP4I0StqgAHdRmI0mYcjDVJXbFMD9thhP68VF7vdch+NX9pChS7kCzF8HTdOTzc9EBAxekLsAZWt+6/iSSJkjNoRiyaHZqJv0zJje69MFHNRKf0MoyJJDfz1DvOpb5Anj+9WB+TBRdPeHhQKtgDHmk6BqbiSFIWhReSP0YMxbIGPno/GTBIIm6/jiUfTMmjeik+o+3LHElr/W7hu94a75kLGpKkaoxl4BZFpOEG7WbL4hOVBVEWTQnuzqH2nsv2qaSdlc55e4IBiyGq/RSUu/q54SpAichlskW7EUg6x6nyGQ5Zkh9GNBd40Hj41GhhZkZr8q/sXs/vEwij26bUcX3Tj3E7SDs7c9wtNHBh26xdxqhEnqnbaifNzXNHT8grv0in8cNTTBBVdzsg6zSW17MuTvIA1xAog+AklwBHwqMAAAACzAI2JPhoDJ/F8AAAed5RAt8ZigscFeEAABuAgAK9odp1oD+J+wwBxkruelf5VrH8hgdQtwMcofgLuBZMq/B6ga8AZUDuA/wIhiQA7Aw7P8l7g0ABU9K8mO4+3rAEOL/u4DYAVvVb4DT69N/968bNESBCovrwazjyJBQtcGHsFkL4ybMTBpVzc+JotVjEjwwpU86ig3V4jLMQFNGVqD0nR65tB1ddIBSG+BLUANeFA27gEvKKFoMtI8wAG/53oDWBHKGgGXCAkK0AHzk/EDEAAVDGxJxlpI5LnVxzvpQDfYHvA3B8JNwCuFeMliYgyj8EB4jIJmvIAABUAogvGp0+mnp9k4AWSkCdywg6mtU8sCuLuAAAVJmDhB4JENsAzqKiIxiU/QANYKG7CjBgILsBHQRBghS6iQ1zAAADgWLuTL5O7j4oSsBDC7RgPM9RPLlPdI9fjfFLnnLMKDjDt9mjmzAMA7M86Qf8DWWHYHKU/BgxexIVTRcJ5tvRvrR+57977DrVeWj/cn+XJJz19mybUMg34RgFzwAFw0tEsAjKCyxKWLCFMD1Sa12HebNkagCZx2ffrBKAANpEMEAAAnsfCTkepPUbjL4sH5JbqEYVIyjWpvni68EDClNzKSCX0PGSeNiwgc3xAu09uQyIIBUv13pWzL1DIr/r0iM8IBMELoE05e1GE5j8uZ/OKwWFcTe1r9tmoL+CcyPmqGhznmaPl4aT8tcERxz/++GGUs0WaKaAJAgAbcbL91ElGaOYjsXy+FF0PV5MVOXIWlcUfqcRTsJyLgJaxr+hXq/LbYakc0VXQqP2Z41VmAqgfD154SpqDfe22aP8X7DsIK+4aj8rle/A6SU+RU7JcFz3xa4REmICv+SaefCXe9t5+YhAM47hJ0fe7x/ELEhPJaf9BMeGROxasJiICkiTSPRF+zNDg0IOp0BaanxRtF8KIDUy7g848sJKj4H3QRfGtYPU+koFlRdMqYFPQeQTNGObbS6G2x5OGXhG+swABkB8ei0DuwECFMAUhn9rs2MjnFe34RBsoCyhZMASwr9AZDgzj8TinkAbbxF3GbPsf1HjqZk391Z5g4Sv6kRkQNVCQlFJCP5ASNP2M8VznyvD4cpqBPPH/uL3o+fCwaN2wwOcgk7cOYejk49AB4X4gz4H94nKG3cH0jakNIuZgAFmARstCPSQHmGY1AT4C8iYRyQIEVDWjYAEc9hmUAEffnsBafskljmAEfztAAAXoYLJ8rwhZGYGQAAAG8LC2yMhJswAGJaH0VlpggFUZtuvQn+wq/G+BZAG+gJgGI4MUmvtn9JyUw92g1itnuMxQK7lvmCFr25/LAAFglgogUgADkUh2YhQAw+UkAAARU0ooAAkNAacQRaUQzBFUlVAARiVd0fNqArJt7BG4Fak06n3js5NnExZEO9mjdAx23HQcxErFGovzzz0gH81fFvG/a5qyHDc1+a+HvSARf2xNjFRrciHCpqfP1DbaH1Ik7TUADf6PB+3DvNZYRiDj7Ce441kFmt9oLZr/sqDtIfqZgMyX1GPBameUa5AhkhOhpMsLQVxLGgfPyIGJb5bEFSmSGq732vkaDhf6VGJACs71sMk526gl3+jUbuiH7Bq9mfZ0k7EZHb76Pwz/b047m39WmxJLQyH7DkN9nayfAQq8ooRNa5pZc3hoMxqm1qzSelcKD6sM84ZNid7KSJjHelY74dhSiQFQ7144RhjW7aZ9bsCVuhCGSFxeOKBdP1YgTOChL1MwE7hhFZnDwcHekWJB3cdSWGWKa8YygOwpBL6d8rCaQSMx+FDAz4gAGTSAIdPQjIFOw4OxUBh8BFqECYoCSx2ehJE4zoADggAhx5eOC0YIGxUIiyQAEPjoAYVINA4ijl3WJMZzayOKGP4eREWgextRcE1iwwwDkX3CpURy6v6lwjLsRLefu5abLERUwMtI7NtjjvOkdiNR2B0MKABz5w67VGfIfzE/Ib+szaNj1ui07JbOAoG9Es6drHffhlDs9ff1IHBDYASbGZBFJdcc46SAFVlsB5x1aeBqMqRJLUSl3P0wu38U9RQRnOGbAx0INgPDZpGqth6wYyjH+5LowvhE8YXEC+mTAOY8jC+BbwCL5XnotgLFx1zGBgAEhzg0ARGJM5O1hYl1Lxpph6w9QqlXgEASNXsMjIGvczChXF+85bJKoNXAACmjfEwRnSvYSQAW5IcRI7arMSZK7ZgnugeOawKi44QArMFkj2hcLqgaUAMXMTIGGC6VpFlE/CvufauXyUKF9gYMAeveQ8RLAA0wXT8T4DC0NcR2+UKDMXd4yQJg78YoXgAI3jMvRqAFMNhASj8AAyRPQEDh3Ve/VJk4wc7Sm1iNyAat4JxNtw7M1hoNtVL1OGrYbYeC/yF+fwUj/0RsxU1xa+idn3CVyO4JRtOk7+eVgqz2cLN4DpCEBxsaWL1KHeBwVtwlE/hxG37OVlSIiCnTjBmvwBBRF4D5iCExQYNCOAVwKG7AWjgOTcITHsDKob8TjW1iXwOtsHzYwAcw1a+1r7I+BePTGgmkAWb7mUMotvr/yebGtusFEUTPL8KKJSyQtM1nlwz+DFh6fm1uHxC312ArUDdf0afny4SQxtEzE1xTSoZ0apElauctsEkJia8s+FjbR4WfCjQQ6fBe20Jqr3BistHMaSP+P9ZUSg2/Qx2piI0NIVq16vjSc9f+BRv6vhtfDjR9gCaJAPTHXmDcKv+s7gtoukPFe0L1FcA6Wo9xLhUnDNV2lN8AOl7l3xfHDSfpsn7QOWnNqVT5b2axCC6mJGg/GEXhhqqHaSFAeWyiNkV05Z9acxLT37jpoZwALq4egFDwrYIg/Jy8N5IqDRKKmKajZ9odebvhHtaTmQFnt2wfUgkwuqPkBnHhcgAhtLfAw3/RXIjQkMbmlnCAAhwZvna2F41NsQgQH6im8KzyDfoi/9xc87F07qSwjGFSo69M7DUalcaiAiFWgozIo2R9MAzNIFoEX18/IL+65g8XVTc71yRaspyTBGQHgcdmlj+SFVVRJZ1GHnAABIKZZGkJAJUQjfbPsrCVgbD9UdgIZij/odUXDDiAFIELIAAASOJr0GaAAFQPWP6DmVPCoE7OAYWkAIc0ZIaAADRP1TvwGRYukEKvYmzgAxAJhAeSkASKoB8xT9geFYAorEBYw4Uipl0ijgAfaJ0pqkRwcwGEMCSXhoQYIdaWASYEsBaMIfQHhKepBvK8AHl6mDnEIM8LleTG8WZ+JvgDAENAjdeHt/RZDioCMO/QDjTTXDDzwjB0OehD1IuQyHvEfbqLzdZrrTM6k0eVKQRdt1GT9UcFbV/qDwHlZUMWCjUCoAK6FkmDoLQ6fbdgUtWqVbaqjA7xTUHuTYO+srHnZFcvsERSdyqjyuUldLpC1YTXnZsz3nB/moCuzQN+mMZXV7aKuYNfUNbsTvcYNiYGAm6Ekap7g+rk9KfYPcg6wJm4CKzJLmbhr+wo7x1yIfxJKuh7TVkMTm6KEazOE4GKTjq8DVxMxIzOxJDTnIziV0ZbVt34P9myFUpxCVJE9fA6aNxa8qi99QxE2aDNynfp/nc47nWATsbQ01U83Xqf5HnfNQU+zOcfDSiiFRNUS5UlmN7UDZD8sNMBXPZD0ABUJd33CSbNlHUdU5OwNw85I7hQVo8DoKt+HSgHdO69Q5TagAkw30iAguWBZ24uHmpCtNigAANtZH6iB0psDVwAcabkR4O9CAWvgFIAAAwcVL4rI2ZGZGuAFmUEaaKMzSi2Ez9aJQZAxD56OgrFNucayZbsAPpoSTiRTzcKCN7GmhtVbAetlKCDBV3Ab9KC5S0/CGjB+Pu9wCFDx4Flhtf54LIULDhTIdAAALRQZHA6V7wRwiJZbLBcEhmvX8QtDE4DA59VF+Pkh2pBBppUCYiiB5SoQPAChkyKAt3kT0T1DJ1UANeYQJoAXNOGK1qZSakHtqtQzcqdGITNP64VCYwAw+pPyOP/oouzsjLsQTi/Enycz7c6nAZZW62DEB5isC6nKlCUuDfnK2Yuo7CZ0B+Z7AWfW3R4PVosbMXOpBFajCOA8Ge4mBu84gBorQuq4aCQBDCQpE79kMD93QACQkByFH/jwoA56wkqIPCjgAKp1WPHaKLaBNMAABcBTMbpc4IBTFgBMUalADcAyQBNiXGJEUIVQDNZQzgAdZWGAUr0IGNABq4OclXgyCgjRRP+bSgaHfNqtkMRAWDvWKshRmxQjIISgB3cdyhmjZYdpt8UAy2yBucolGfm/fzQWlzWYAWPCzRjI7Wb7qHND2Yq17SoXDo4Jdv7owA1AAlsfGv5ugv4QM5whS7rKzpFEn2yLOXO6Zgl+K/FT1XeAQqlA1tPuCdhtvT64dz+vDbfgoXSiTCr32Tm3PAlu6lBMILmi+3/D1tN8QB5TpTIAXU5KKnCwYgEQYY1w+SgqHakO+QYegYq6YTCMReXOugAH9aEASHM0IoHml5RSf4Rud51sCWQSfyLMXXpBmxj0as6sIwKVBuvX36V3QCUlAv88FPH2/8f0878BodOVIimq/W8HeALtIyRH/K4SVDhXq26VOoknvLUuVo0HIiQcWW9Rdak6ua29gxU2X9ZH05aLNevKPurAfG1rENZIwFsHYbeMamHvYfbZb9dYCI6aYuLJHP6QF7A1JdZi+C+ri2LaTp7yDxzcozkYcskbYkND7ICDE8XyTEvwe8QY93bB34Ktrk6QI6lZGLygoieeun3HEuXQzCRbGfK3wKzQBFml9LI4V3ZceDnPyzCvCFJnCpp+itfY44ZFO5v3jReLTdKDE2e6IOlaCJzV2SoSZDv2rWmJ6kDT3rsfGJ/BYm/PVSVcI52Au2vubGEXmt93sQAdgaxoFiCjHcAAkgZKxywCTQFkU4UGTgJ90oMnA5B0TroBvbboSpSAT5Yt3wGTKvAAW+9OqXyOCO/RFmjTE0oocaAMzwqM8AEtpzzOhcJm4TZf4sAXsDqIlw4maL6KcQrJxSQPo2EQSXvsiwidWeEWWrZSwAIAI/63YA65wJNAWAABCCGAE7UwmHQY2MFoMd6BikG1BLEU49AAVVIKRggAA+iS1YmANjwwVOK6mAeCDJw8AGkEKP/qyqAKhywMDAB+AWQ1boSdIdjbMDySeqrA/NYkodFQBJVqEjEnoQzAidBLt5vVHtHShw1kfnmIhJ6GgATiX0QwmvMAAhAslDHAxVaOrKAiwY1hCBmAdg5bvnACSYAXLoNr92BHNgRYH+y4OPxaCt5x5okmeBkOAfMp01Vcfhhc81xlE0yVtb6HwTYBwDDs9n7azOyAzH6vphI5QLe5hhpgwodm7mftM1d2/RvU4WpAorHRncPD9QeUS5RFRP5R539XMG6gyBgG87H5aBUN8bfvCJ1tdAZsbx/SvCO9ih5P0751NPO5XmG3dZ9xA33zFMxHi5mCvBUo7XjH3/V5oHAVek1F5bJG9MVa63ozfOneCzyciQz5X1m+BpH60u2ah4H4BR1IwQ4PiY5T9j8GBW/IIrSyP5FoiTCWLdvX1twOkfiWeuafdx5pP0Fzrjmt3HdwoJq509MVPTJ/2Wip4qBqz6TWlsSTGqN5SlmFkIAQNdsLHSNvhvxvbam7HOpkEbk07HllyTKyB/WfjQNtiShRWvL88MOMYZG/3dsUkAGIUGpNpVQGAAdtoB2BkgdnmAN4jRxauxXH3ly3ZxMBugcwOIiJKG3uKlQASThcpkwfYCiAEX3UP5AhqNnsBidvRw0/WLgycFunTMUCwABdxxzzCL5g1hD3ANA5Ypr8R7/jABIlqLZggwyzBggvdZ6ggZ19Jxxq9BOu67+vwA2BmygiPes47DyheM6MweH2RWjJ9Vrf6IabEJKB5upFIguJXfI9cGHZ21MWRT5iJKnKUemRMkgV1EG6z5rpXUZcH3/nuQYvv8MXUtvLtnxou6PcdGod5lYl5ttTuRAUALr5sxO6h5cC/TBI/aO6RZ6A/TTqFMRUYJi9ARFbvw2CNdLbKbkyK3cg1WvIFlRGrqSEjT8dSpaLIWuGeBiS14aHxCgjeRpwB5+qst6OhYlAQdwwi2IlF1adm6gM8xIgXCUACwCGtj3A5zR76h2CWPS3x2X1TNesTXBU8GboOym8iyM9w+5b7Ueugee9MRn0k2YXHjibMEPB7xjr+FOr9cCt51x8dEOreCpN1LsMlVQwRlGtQuU6gMssGISaamsP0GPEKIEfBGS76YALif/gr6jh4egfVwBXNksAAE6f7Bt8Ww9IDpRh6KFWait1+SY1AujXyFvgtFRYewB1gGDDBNvRNQAu8AnmYyEQYZcgQIMO+QADXRT6XQm9axCAERIBorDMTJCUABtUlYFSNEqD7sA16oMvbP+4VVDID4uj9Ggv6gABd6NY4BJPXkCEFo6FhKLNqaMXpKEkcFKN1MtpG4AhKyKoqnB5J8gFsjOLNkUAbrP+/76NGaAtRflwSACWzUgu+uRERxANA9xyzV9G4k94mNFXxsROCDA1Q2akykWjDJALx9WZgbtsHkIdcXeTGn7Gy/VQCXnZqv2zmyTJrR4jKW0FCo6KK9XR4GHwzKKBvkq9qe4D1ibTtyRjpYIWAZG/8a7FDuAV8JLDkx+kWB0KJShdULr7GnK5tbEt6T/66S5OOBoUUcsWiBaa2CvZp2TJGJ3KVDi6uNwy3qijaZt52qpLhRuWsz4X4L2zBEKdp8AK5PP+oxT8/woL/TdKqB7qcnWTGwXn5s3lL62NQSYP7fNv+RuHaQ6ZQZsWjoX/ezTs59lfAErFn9jy9PjlzSEBSe/jKUwFdcYQ/0iThHaIeY3WnToVHAeYGS9cTYHzPIICl3OokkNJ2aHWG0SnwE1yOUKJzKO72Hu//QU+T0WW3cuCU1JxuOiz7R+eFY2zaWvoTDcrR+EzmyUa9wtR3rHQc896/J6WSAqWwEkELsk3+9PwYfJskUcCmPkwKt/g67beFzdoj9n5njcLCcmU7hmEbA44Nz2DRKU/YyingEm+DygLZ8DCV0o1H6JQSOTaBbdUOwfE4l4x6DA+oBlGWbQXGAlYDn86KgAKtgmJgl8GdivHolNSUw3m3SMVg/4RI7UlP1a86zwAe/9JZhbwSef1+W7gwChQEfCKFlJku7AN+BBoWnERIaHjgHGCKYD3XGCcZK9xNCBpQGfYpuPrJCL6ISJcEwUfkOskOAK/9kF+CmZ5i+4DdS5v+7JM2JYAveYHpYFHIIU2RnR3pF3YEajD6QacADOYf5soUAnWwBDH5O0ZS0IwbPXgvrmpAGBkAUIQhwMYW9hK4q95oADNqA3mjU9SZ2z6Q2QdY59KMkD2Q8ZciAzLRzOYQTf2DjTN3soG/F9KdKkVvCLxdyZNiLjdxJpzI48sVYeM89AxjTT/G8XnXklNp4SWjMNmRD6S1C+o4xhTZ5AAHu7GNRqffMjNx56oqbQIWVO6RI/HsR/gwVu1taRqKlCED7F4HAnb4Wq7QZmz5L9JyK3M+gW4dffVlYMy2/XmfG6vgkjCvM6/7U0aA9i8B41dBHq9/c6AdIFA3GYn/0B1Zuzb74oO5P3bXYGRO5AHPlfUOotSXpdwvdFfeUTGtggbfwmn1S0Jn9UN0/nZdZ54B6mq9UzbmMzqAgQq63HvUjZKqxuH3KmsqZ27U9ipAt3J1GA/bOOjxWuJBE5PE4LWuvbipFNBrGIE+tL0DIrOpxwgT2K4OZLdRZ/pBMYWVDlcl7lWz81UFMNBZpqAmyAtrSbWYBmNE9vs/HeKEbTbhnlXKA5A/dwzvrVB9g1aNVgEqpeoSBSY5yK7bF/MGAsCcdVzf7T5iues7pDXY3OCU2GFYAAO7yEOoJM1+FU5mEVieawAhRO7SYgxwaetN5Qgq0NSHR9dBe+TFFcpGQFAn1KswN4sGbao+QAaJQRBgkrkb8KmHBZCav8ExOpEnc6nPslxpaTASA2LAxsPEYkRVcWmeizSUw50obu0JQIBBd3weDp3R+o2qQiHvT0TWI+pm/ybZ92O5k8ojzf3QpdC6htiVWpH896Zkph1x5FhAAXbkU6UslpeG0fzlHEdWovCXK8LE4Q+9e2gB1rT1p7G0p/fDekNbmuB9LVBsmurClaO5GsZfyXoZeK85i/zux4FvOdmB8FV2foLki4gI5Lu9pwJMoLb8wPzQn/5b9Vsmzew/YvmNTDJxmFygJecgl6/msd0ErwSPKvUYcUe3uk8os6ftfJzBlzh9RrGB95nBMrrMAnFYLGT/5+GwLk78JPahmvkOsThm0rM4f7AmyRgIko1i0AA3ceaIY2N3xue5L8hi2dUAaduBdgLfSF/cEmATtHgMnCFgeiZE6OhV0IWwCvQRGX+HQ3tUdZanMCsxriNNyXmVfcinSqQYOn+PmxWGiPdLo1UqIyJVJZz4U96HFD3NtgAC0onTOEbaxqLynoRWjy/6B8cP31Q4yTtc8U0hKNUDyWcZmC8GhAyIgqiU+a42rqjHsBqgPxuw9AR42twDFL82ARaAARRxhrDHGtqAEwhdwqgQoftXfRjUA7AHJy+pxKNyVaEkdCpzad0NIRfwRvYerTa/UWI0aMFLf9IBCWPFGP3YCharFCbYQ+rEgto78jcZ3hhd5RbQAKHl1iCxA/HeXgoyBFH9C9x2XLavGhnYSWc9A5oAOGM9gCL52AXoSadFxtplGgu+jDW8K5u7AEZSHV9uDPoCTfOGZGQrGcOV+WoeRdKd02Ba+NOr1ikr1pXmqJyF/IiD0p6HK6xjl2wDwexT/OdgZ1wVFwNcsAKJVrJQrhfCkBvy2YjhSWK6ix7tMcsHRPMR5CgBHSiOCRoJJ5UjirKM1ANTMh3of0yQmuV8quKWLWxZC4MuZqaASplC5IPJtWGLJILvROkOLOw8S+1GCXN10sAJtTkuMuJf/r52w8tT8YpoV0wVI/4R9aB//OnoyYO0VpGT7hFRxREEFVm8x1svcgbjauJkwvUtr0FA9Iki0lMOwstSWKaLslLdUm6qxmNhmgq8+z4klNtox3aO2koK95ntn88uAKqje/QfarBeB5ahOduv3GgXn3by1d2wu9N5I5oEt3y89e66oPNOAzOPrFSQlZSj7rPpDd9zSJDkPV7rkem2GqH/PR7oLEOay1kEZP7sSSyYkYO/JrYpHsgkzegmERSabWlbSmNO2x3GAlagSRo7pY/1UAA8g2H2mwgfot78UQq4Eq04VYlun9ExnDxy+0pn/GjKuct8b5nsVoRhTBeAO9mGq/x3E5QA28A7ysHrr4qQEVWwg35Qs8p+j1sudZ2wTJYDAlOZAbPP0V+ASQKZ7ggHVD/2IAMawSIRz5NcnlgnttRqCCDmGJ1xkicNVm4xtIrECdwf6xtKzO4IL274LAaL7WBITNCgRcIPwuguOtTEvo0sAolhRrtgHr5uTsBVy0rga0STSPozA82IAsgHYAvpG8pQQQRECCxAwhq8k5pWFhP0GoAbUmEN2hQADTSKQ7ZPNey0ilbgE7X0DOeoSUA3hR8bwB9r7wgm8AEZ7YC3MDcZVNP9QikABajBL+ABke4tohAZuwTel/oJmA+1jQVimDy5JgWJ5iTggsj4MOcxpASyAOrfOGCwM6twI0jWoeGEJOf0aC7mxybEggNoePENIY280EKcCj0hoRuqcOWKXE1xkK6dCFPkmU4HDR46Rdh4lWNmZBTTyRXHSp8Jnkt+i5KVCRhodAE6tTPIcHrdgQRiJuvlgdlD6GrVdMQH3SJADiAwkGI02MLgkUH50sGUZsDjChPkF7Rz9GRDL7vCNIKG9Djge2W1zkUatSOYTyJlq41Vgq4OvIRZgZm+tE5xhea2SsRMiuNegc3OTr7jmeBYFOxxQohZGJ5IO58dG3aq5TCjKZGaKl6tsxibNrH/77F6hjdVgWbbFoccZpfYUxHjfkymzVKAYMkABdM8hP8lGdPy1oElj7L8em5DlfFtAXzHueMWi9fbR97oIhvIWsdIhfx1l1CaF7Wu+uV26XC5t59Lvnuke75PNgBH7EPJus8Q5WucFVi00ZnsXlX8mdBAxxhjVBnv0VjiGDAhs8PVYDOIOU49YyEI6B4ZyzKvK2zD+caJcR4AEeIN0DErneFPYgBAmfCJU1Q/gPk6f3Xxk87aptgAPvLBN6AaYVwqRXkyQyTHSTXXEACoToEXnDN0fkpzUsgQ6gDzAA8iSb9Na8jCN7AmGR7B4AANUzXPKjHgHBjknIvmNkRNB1KxprlU1TpQMidQCrwYBOo/+1Vsokp2/oLW1N/N2s/1ms2vmIKi8cgN2iMpH9p3z2Ujqn483jXI51Eh1k8kliFqAgBCmdTmxHvTOK8OAjDswcrBtzi55WNfFjChzircJ7knTlhg+cuQ/kDIK6V/gCCj1qKaykDbwgDDcyq2XK0G9a8F81N0V0hXUR7Vd6L/cXY87UDAbBoF6KqQyIc5WrJ/dzlULGRyCsqeuXh+fGq+Ns2sUxmTj2iaDz32hMb0s84iZvtbVeOLVjILRBNucf6QTPunYCaA7p9W5SQqaJpeqImgyP65zIrc8ibkmV9O9vDzncDmIS3TwOfr6QnraedKnHtd5dy2B14kbfymSGXHoLC6FTNH4PrjpkijbJB0bSTJydrlWyXaTLEtym6DgKN/1Wh5o2dUeWmkQ2dBbRrhJD7TmrzTCTvcoWP4LBqHEufRLd8a04v1GoACM9eYSRSWCcgg2csB2ppO4k4zfQfccKZgPFt2VHj+dYiewBWHNAHYWpVqridDAeHDPH5i/IMVCmYA1QYoqCUO+gpDj6CalQYiyXjwQQNQqbJhnOpRR3DBdGVNYnMjBb67k7pensEHmUObQOm11SO0T06ZWgAgu9tBSXaI0vsPRxbYtTRyb5i3wPrB/hlCgDTCkWAl1O4SiA9wQa9IDeOAaYSoAA7qSbBkZ+25JDBQpgI4gWXB5RKllgOc7AQxwA8GR1GQ9wGOMODqAu+gtsdsg8a1Dd1BGca4FkMbhgRBZftJr+HfIGry1Jp2JqRF2Suet7EAsjADiz08n41hIgcvGALA+GE8YKiR3oQhZZ0NRAKWCax98kqgrkS9IElc9+zhsgDNIocYATV2pLmHSj/kX0jdK4atJHYl6EFT2thYAAUGKQlygqr4GiXhPCP5YDzYEegbldn4MUE8NR0ysiqBFnH00YcIUvwlF34+ukN0C8EDOMZL5FrH7BeVjGS1DNqi5/kwKAgmOyZBOYCrPCKhBQvEekwYgAPIygvPxh53l0/CqQZaRBn6EeIEO0JYDLRaDZJoyIPH2OXPEFxV67SGHPtAAlXfEhwdJPLyii42CgOBUmZpxY1/FZZKWRz6DZ2FCA2VVCfibRo1JtMF/ROYDfwiQCTh2sVUwET2XcYBN3xVrFchK16hUmH+fcG4Fkh8Sb0tvYT2kelgHEnPgRg6uwiVULt2CMeC356MbiPvMlpdUf0xyWLEKkmg7Cu9FggH8bUljOLpD3VRX7DaoqzCIeBNeUXf0PSrVRmRuZNHrhNQgd5OGl5u2Opf81BXnNv1h/85DzL8YlE664Cq5QX8XxJpQ927BcsmYvCdpAY/MNe21392ZlqALpiUE7fScQhxbaifvMv299ml/nQryS6Zo5QBbrCthg1ojm/iowox8M9F+tYQFSr2Od3V2N61qdv4MRz/oehYoPjHGv5Tjl7mA0zOGaY37/5tX+LsQysTXxV433aVnLYjrt5Ld+PecGefo/NYAaTiDNb1hHNGnNjEBile3UHvMniPl6Z4xZ2nzwq2yYG3k7yHqNI4keU8jSwbZ0WTW2NLgoDCB9oEDESHoDzIxkSOqLLByKQl2O7Xon66W3IOZCP5NuKc5IkAAwdVBB4OYuCMXCvdwoo60AC0rn8ba1xGQR5gCShHDk3RxnUIrix/Kgj8jSda+gcu2AAsDsiwGMYhzQjvzdCOsFpJ285VUe7mABrkLUF3YHnK2C0LtzTLCBtrGvN8AAAN0xAEDrBkaytNAMoQl61z4XlRA7D4Hf5uXCD4c9Y7TKkxbHsXW8Aqg2i4IeBKSTVwCQhoTV1JxOJqHiHtxhioAH648RhCdZ5HF6HtTpLqHO0AXlNk76lg5ZsAUnBDaGO30SnQbO7FEzQWfBxyPphxx6szlQ1TqANdtb6xi4NhRNnQAdkEMXCA5Y50QhpZHbCbQPBFtzgzGsHcVSjm0TauIMp5WoBcSlN94Uxt3fl/2MFxnvDY9IdieAW0kJ0y71Yh0YhYFdgfby1mACv5HJxzbgFslroLawM3dtJeWkrQqALQWFFJSOZzVVdD7sOswFFs1j/U9tEW9BrbCi/MQxCFlcfttS8SxZPORd0HpoML2hgHeyxIr5BxLv/5POcjboqSnotKOH/8GDGL6n27HFNasHz+vncwYax8WnlJH9Rnlm2ddmurZM/G8HVnPpbbSrxyarZ0telX0ckRtwNvQfC/FTVcKn9XiAFWNg7393z1vvZzVg7ShQ8MAwOSIS/Pb6kvUDniNlfnSTpXt9jPlOanxaEj6j9t0ifzi/OXOQWvv2B9o9DDc7QWP1N/bWseYPxozJ+5FVDxU87bQpxKeFPnVtRKFFnDWiU1wJnfap35kpMqlhrxnEQhhbeCUTHBNRALwXALAApUHVhHMwWGCHIJLMZ+GVAWAh1dPPFtl6wqrQl8XABjMikUt04CwUhzBRBYgN9kCucC1R35QCM5sITlWSUROIXpSHVAzwLayYlUAkAECEXZZAySKAImxTLc07rm5J4ZZ0meg9gRHiTsn3GC3DgVByQL2l9xSAZGnG2h6BZn5fzDWcH+HeDgMzvpnzYzcWkwlk0MdteNxARfAzmsDtactt69pZZ+N2hSrcNH/Gqoj2vwODsEJml5tapQPUURy+fu4LE4vvmRpCOwV73MVC3xB4EBTttIsOb7r0KO2w8nQg0CuOdExWCwzSNBG1TilZqMDukv6yKop8E1AsEHSD1a4EPTkF2AZlvUd6WLu/sFlV03aYvEbqDtL5s9H/l++GDo+3Ncxtu4GXa6dCuEHu0BTEOcx8g161UgAZjIIZUrEFGK12tURgAUN+2YwiAMXfFGvazxnZLLJChXf39jhwvF3817LT4Pw6xG0/bChM2ukMAk77vvxIgmRl8vGo93DqLAplomEnIZVZpoJGNOeBQ12h1BgrghUseyubdjkmvrlIVqw9d6n9cQtveSBZ3D08lBK6FDTLj4+Q7JAyKtnhaZYyxavfygz1MFo/Ly4o2OdqzPXPweNHRmiDeUI9lnfBrY//BAMJPyQX8dlBOWkEorAfIccUyjNFtfF/lu/k0ZNhHYtqWaRHWjMDKhJhB+DxPANvmdWJylTOJGFeExa4DAwiGtZXgCNgUKLf25+HOQ/Nu7FSvc+sQhtWmcCY8R+rjOvCC1qufcpDwWVKuCKY/mL4KraLV3dNoLiHk1EQam+PAe8CqBIgvt2g4KZSaT0CFS+UCDGo2Hbf3IyGMSf3L0SNygDAMWT0v53kNwh1KzcCYaxCf+D7v3qTIoT8lfd4QK/3HgULxlyHgCQN3Hk2mjOUkLIAGABhGIVfeHz2Mv7Nl+B4Y1AVuPyAb2yBt0ALvj8EAYZQQ5Oz4SrolYHoal9MEJ6C0cQUzyQfhB8YeraSrVW9iEtf2mct/ZGx/ADAMvN0RbAzQ/dnEumI/Qda7IpbAekyLsjWmnDgvnfJ6hnU/oJf8/qlRi9s+LfhRLLC4FYT+Rm2F4X18KxCAZGskBLEejKxu7dL2e1j6h9FRrKLjyJVOxHZnjUKm5axnTCLg2K4ph/8j5yG9IEB7CBRcUKHEXYHVhYiEL1Ubt6/OtCB+KeQWQ1/id9CHrxDOFM90tbDOUMIdhet9lAlJGD+EHRU5asuGQRwZdSnLIeA96sRwxpHIdipDJ4CAMU+KFsa5VgxMyzoqhIMHeGh62MfvdgxSgGKRU/DSr7pjucyrcFGfDaG/FtLw0chtKGl6TCfYwQ384tTx+D8m5Yn6LuGQqhmAg7LOsD529eVIr4lb6wnHdD0P03MMor2xK5Asj5azPjkhxzg7kHTgx8iZY02Eva/pU0yhJPZYC6dolY/fY3EUveDooCrOxE7XHTZfXT673Ia0i9XwqSWVmyHid0qxwG3xlsOTqsOQfS+1SDbO2McURUXr6pnwTg/Hfe0MzDnKBVqV+2tFQ++kvuvNAmAC7Fbd5ZO+jjRSr5QVLhjr8TBd5UVHrl00rns7+s6QSHCSZwA22lzmVYrjYgUkH55VcFmJ1EQ0hwgQ7fOPANyhdCc3Zpj1XI4tx4UW2jzbUUxoBmJuuCIV7vnMraFug5wztmBnEf8u/gnjdplC1glhZ3dsF2G755zTMIIxuAKnVS6HEou5oh5GxxiIAUKI0NZkFC7d1TzXLm4xxAxUGHMVnM2Fn2ZmlQF7kkkQF5aiKmWpPIGBnUnoVoJctsSi5fdH3fGUsf7fv+W+/UjK3+iRJr5xcxWLU/Gsukj9YFgu+GB1ZpmxRFDRecrAETUe7+q/DWbTWg34FxG8974Yv9NJsnu/0Wq0hnVHGhwrqXQlFKquZbUIX3RZKsz+uVi6fTL5+kZME67D5cembGYRYDyRWNZzj70VkGzXeyrOnKawMOoF8hAIK2GY0h+fD7NN4D3BD9d2zuhTcBdADT6ihiHeVwAZKxfV/4KwA0lZOvsDwPVwrsAxbqjOOuAOqQeYYdcvVq869fnMIAI6sJJEr7xXkuB7QuzRbDnEJqADs2IT6pA6hpriFO3yYLYgCXzCN9cw37tQiCmq101loe9pjpbF8ZSm9ua9Ap9zN67CWBsHYUlOq3bkAm6Nq2iqa7sjRmcB9+KVU/4QwgKXvEYUZNyAA49kD5a2OLvhjq5RngMKWrw2RdjoDB8U2hC7wn1w9RC/xSLrRl++s+xSbHw+OcKqjFrICK6M5IISBgyQDsfXKkvMPeDQ+vP79DqI6sUupQCK+OjUd28teZuP6EC0FyR7f+OAPeq76+AdtvV98u1OrMY0tgftOwWHRSXgxNwW1YHIxzKZ3MSfBf2XDcAlcB2rw/72nzHUBAoF1u+iy19E0ZtabRGQxYuyDcohGLSmwpAji0BstZM1Xp1Um+iShlXqTtdGse8vLv4KYWh7iLcCzErzI2yfDVjOi9z70nDqg/sXe9i/oPAs9Wurx0t55st2tjtrosQSXe9Wz3rd5IvRAn/VWPLBeO4AqHtnWckA/UOpc5DNJoKEm4xvlaJRR5UeEwOOQ/NmVcP4KmM+SRiF/AASpyBaQ/okECE0Znq6oqkQ/fHm+ujowCDVVBLAY8wu8uDRTsCvACNOAJsl9PhGytrCXgi7OurBsBoRWKYIYBVxc2CpTlJlBiDA1DNwBRyKHn2+39OQ10CxREGmZc4rWyn/7ISCnGnRsB8APXZvtRdB6M6mjoo4UJ8CLvpvUfVjKRya891ggDRu/A6xF+qmlrPCRm8JEygj7N8OTSTuHwxkY4KvIhZZwhuLiDajQptoq0l/p1eeLfuKKKxLqIz6epEg8GMqbqQcwpWvlO48jlvk32ZkA8rF9UFegTfijFXlXhPMvlhGV84ouAteOE35baHvVhW+dVVFgdlfjT5VZckueg34GoyAjBduB83+yE/XXvn3sJxeuB8RVncsx3G6ue9mRXKH+hQu/wM293DE7N5BPtBOpVjg/xly072bUNE5pHeaFyNj8FN7kU2XZa0Nm3TtdYEJ+RcJyd+lho0s1ETwSYfysBDuvfs12A1iMREH3fWGumCT4OasaiDcjV+swshTTu2bK2VUbB3ieJRmzdlsmoEdAO2vFAcdRibq8qkUzgK89RSAotTGYLATl72Xns6BhmnmkqMchsHzB9MR+IY9cR4Ro9/RJPjRM1zlNbm9ZLVhoE76qK49oYZs++sLXm4qTGWBizyL/LujsoqrTWrr7w4g75hnM4BocfLx1pNxYfHSBrs1VkYLxoFd08Gj2GJhqtbZJ4tQOxeKhG8XeaEpKBNAQ/IWGL3D8tjwLZtTI2iLi0p50vlAQUE3esNOI4ErJHQYc30KbBKg2GKtyWAiKBTTQKgeJdN11TPSlnx/Cz7poUsM1YZa+RPHTJBjFXOoOWeFjLD/Kk6m90EgMWni/Cx+/iHsQjbAPxAcSADwqxpWoMLdALKDkwNVJueFjLsVbzf/shk86SxlaOgoXYzZCz4zkzM0KLFgGQBCUt1gipCsQkMgEnErWDilY/GVRcdMXcbPABzk02UB8PFFNbetdHoLp9LbO6Sptbw1D4qCDam9k2er+dQBPaKA6GmGqw93SC13T1YCZWuF6NRLG1vY2AewwRxhYzvuQMxARhQ9W71SySTlGCteAYcrj2IChe/q1W3z+/uPYdoL0YGvin1BJXtUcWB8S3e4l3V2TZJVDtMMteIrm4+PBp1Q7o7m+CzeYtAAv0OSLPT+/hHBEb6CMABlq8lUqlR3uBDNLAUEIZVdDEY63OABhz3Q9QRDt/9AITGrmT8gVx+BwBfqWJRJ5HO5gvemPIpbjUBGSv8bpZraEGzSahdWTPhA1hIAyuzP1Es/ku4RxSpPwZNVKTEUYmxnSuQxT7FZORdyKEg9sYfJ8Pef6tTGD+DBZMKmSscNrczLyAHaUqJUjxXVQ2fKiAofzFs4eekWR61YnKL49ECRu23aXPlnA6Azv2nTyqWA51fNl3rf20E2b+JLfwmniMRMP34a+mrqnUCK0MkkYlC5vxCEgAFs9vx0afqSok+DW3cujSNtH2osJHXFoedQyT3w8aOWAD6aaN31V5Nghgexp2F9vCN/fkJjkl3y5WbfEMc47kwDu7g54buvIXWbuwBlPELHBXtPvUz+dkuMKmtUYeNblFZwyLCcralMUO8ZpvkOH0FC+t7HBRtz+DySF2b+l0Bk4WO0weFUW11VckSxkXJt2XrQvJ2pMq3ok8TRzv4Xbp5gQCEPATuhxAe/XHl+kceGuykgaRMSOIcD4yaw+RFI16L+wCKHQkuVf2dbNQpMcX4yXufopmpUKFXtVQ9FQNDk4O0VabGKM+z4I40kDpYFNM3vO+/Z7N/XHLie3jEJldBkIbkswdud9JUs5t42kC1fBiTw69MTfsYMYIj3Rh+oL/oAFoDwhe8A1+AVI30op4G7nz3WizAJxdBGKgzg9IkzgPpheKBG6cGr729uVOIC/zq35wdhO1iC/iGY+AXxSdebpHPwTeJXhTJcmD4f+IFl9rnE8P3CK1h1mNSQUPKPr/qBdBix4cDjM4kwkFC7Gj4royZxYE6LMFBFzHVcINQ8LCoqo9ZMfx+Mvx9nX1ip/o2kmRhKuYOQn+xK+89c1wp1L673vtYN/DBACmQFk4Glqxi2aGucZm12nWKrdtKz1xqu9pwU9v/DJhfwHZtW74oPvOhzTmAv6XVw1n0v9D/XWHKVf8r5vpk968s63fRe9cZdB0ucvgReumrGpNhWd6uvSpQkKS7KOdby7b/aP8Nl8YIvHJetAgNf7dMkr3KZiw0K0tievqqHPedRFcS/v624nI5kTwjdMG98n1eo4bKMvu1MlUoRQ4k4AdGqdvdeygZ8OvVwjPUxa2331HT/cndgEVGYpH6Nyng0u3M/BQ5g57ab0cWxXPyGo+oWXLvyNVKISI49skt2u3i0x9n1z6mAlSwUEex675CO8DtC6hfymvfh9PFS3dtgJJCXaAZxREnjtAAXbPphd3bis5nnZ4DyBtk7fj/emeIGpJiAV48zeHaIDiXCzEKZTYNzYJNv2w8nrHpmUsLjUAn3hQmMu2XV7eJtE0MgmGbrQBQAHY2SBvytOFgEdsfObib00WLGbVXfJWXSaO76CKpZbKaSZ0mADwPxKTl2OKL5G8JbsiK8N1uYiQNlrrQaU5pszr3qdEfpuh9r8YmAJ7fduFWvSrwHfYcb5OhqAzpkP4Lut/s/5w5dATG9vleGJSS/byAV7m/9nkNX+wPSVVri7LHP5RvMWzoZ+rLb/FEGu3Mb1ULW2n1Cv9hEfc2ZXb6JnZGq92t51oJZWX6xLUebgzP/5ZcsuGS9ZxyXOOt12+jfSL37fMhcdDHCJdFpZKXTDjQfN0KnCwWdUHQyQx66kVyEwkH2oaMRO0dlv1WkgPxVDPuouZUfHDn1xmXv1ex5xRs/jJIWYzmzhS8mEPXIv7asNZ2YHKWuEabJgGCIoexIJINfv1kU4y4FgkIeA9RzxT8IHr4U/7orER/ilkB3JdsMhgkmm5eAsE93aEPWEgKcea6GDBc2x6wTgNIL7QEkxHHKiQFRLGsGTvy9WDSYaZmMZIfb9zhGe/5m7Ok6c0h+W9OJBh8AB486sY+KvEZjLi/ZiLu0RIU3wUA2mrdvmShmdzhbC/U/RvTaJgDEXdABwye54hEJChWqn7WCCB8KxrCxmiBkjPouX3Moysz/0awh4BYVGWGaGq4n7oABA7pL0Vox/+p5pEWCv8Ko7ovNHwK5bifqBYfy3r98wygvJ2D9LD9cPKQlWQ+L8K+irwwCY6H3o17KR95DEEvw6L+9VF2oBzVZ7Wj55zpu+JhZ0I+DjuPqLmfk8EwZVE+sLlQJps8ASc+yt6mkx0xGLquHBBDjDHPBEuU9kaPOhVs3dKp0I911DZ3JpaW9jlH2nvzL7YDXpJ255zSIJeYAxgYvAIddkbk6yWNJnSUoifQ7DLBXVexARtPhZJpy8pDgdRKaOuhZkFCu+i4OvxdmgH+k8WekgpWNY+JoQ7svdX7Rul+3y+pqh17+7Af/RnhW5ruP8Zmir1rHFpRW/JwhL5P3e25ElqMl1Hl+joKJcQ/+BW8vXW9T/WYIhAKipMY7Dkl4d5Jl6L49/6+vPLHSqF/CcJkjSKFXhX3FiOyxzrIDKBFXhpwAR9AweBRcp0k/h/4W/uUdd1OFG7HPZ9+kG0tU8LlkPBH6ZpksHJ1dbvnThbCdd6kAMChrbnanCV1Gokc3YcDNiIaePvNkxWgQm7ftA1MGfyFyK4cWTTetLAdOpsMMPpkArIwzv0wlNgMKopcVFWBzH0/BfS+c+4SVYgdsyPRgahLMs/dtJJUb1SZt0rBd3mpGcYhgtUyoQUoNVEttTmCpJze5lCZuDV+ic2foMvfX+5SIBRwHvEQpNMxgxqNsSSp0GTuMmcRDC0N2oLHrVktZPJnwKnMAcVKEBPvW2obeBsvs6925YQC4figAV5FHM5u/KktcEqo8UByElXWCNN9OqCSkZRXPCFsgIKjhqgRF88HlSjQmcPMnARnVpiYCeUyPT/simd4bsSZX58KL+QoWX6hyzTJrvN0K1bfWGG9DSLlGjU9/hP32NgOe94RFX23UaPqSqT8ETw+SznXoatgoAfIzAvY0Zjg5IKBm95KNGQN2YmmXGDagfcbsIJdxtFg3wDW2EBG5Wr4wI8gONczpxXZjCmb1Cw9ACBkIO/TQLNhDVuy1fNxNCRZUcTazVxisyUf0hUwUUHgOyawODJh2+gAHw/9QjvzGvSW0eNzoMyWy5VuGEoKBgDZCarz11KcwIiWrCVAJmRIPAKiKitDYpZ/jLEP/kJsoszEYCNzu9iQCeIisf+kqgAE2CT5zox6P0asOR6kg41CBEIJuDy9K+NLiJLEATQAZWRmfmDn24rf5XU5s5HiwreCJ/62gL5ecP4twwnHauxl0G2IUn57ymBpoOL8J/X5jDczQGRAAhx1G8LL9uLWwCmyfhACM7zEkRenUqPruPo6AeLGRwa47Gr1ZZlrTtvrofMwsQpkwtlbqz4KvfhMaM/x/oHbYKF6Yx1V1xa0jng+TDZhUdjh0ZeK1oF4y5th2xJan/lx7IBZJee4oEtrCCxZH89FOUna7OJJk3tPx895BozjowaYe6FgsghJGtWThB6/SiFRO+GM6a/uCtdM1oE/SKBHE+qCqRDtEJisi4Z0pkcubA00ZzqHyy4jgVoL66oB9fvHu3gIxrmqpCe4ph1T82bfBhx8YXK9isGBYlnMdtgc0ptJRoPswRhQVrTJFKxf2uDGeA9XVwsfQAc4+2qpkdEZmFfrLHBp6JUhxmR01lwT0P4DJyXuL0uRDyhJfo2G81/ZfLdw3/U2eG5vW64SEzzE3AejYAI5ck/jx4ryf3QxFnArf3Xe2QcoZXnxMX2iXamkjgPV1Y3kPOoULAhlqS6n64ftzaD+DVu0VwBdGB/4CXP04YfB9wrEyCqQlkrpiG291sD0VewjeeV1kwoxTFYT65ZXnqjsW8uNk1Y1Ag46MJpiNttcezdjIhB5r10+YooJN7JJnM6nJh63lQTCiN1y2TRKgtyQxJTbc0P+UHu7lPfATJZ7QmJmQDbQ73avqr/gn+U5Uv1n/a3AIi0l72MiLzZyVb0VTPrsDpeyqPZ7TA63upFZbvz7DiF5UtwdyXz154qTQauq8rQerKLnBPYy35n8hTKkh4VE+TKItS8msslAVLN5YtNpNY2fIKNjVCmOkjkMnBvvFHNEQiutbSntQiPizokYLOmVnkHcBXn4Meq0JcQV3tm2qaJcw+wJZWtIJyS7YYhTknq4PH7k4saLDZRh12/qnzUW6ycT3aTDlrbEROhEaiJbIp/AnCyH1ZhZgY303iccK7EnKhduYn+9G+p3kCGKJXA3DiD/Sh91YnFaEGGeEB7YgKFAZw1bfUucIIwCiNBZNmDRr8lD8xJ6yZ6IppaydUyBlBwNIm4mJqYE3/RBhVPVkvnU4ug3QtiW3MwAAC+YypIaHHZO782XF+hvEV0XMi+6rOfx2WfsOIAq2r3Vf6SYizgvO8Z5q9Zn026AtFWVX+gDnqmtyQPXrM7S+0sNvH5YADH07nELUu4VZiGtyPju8BSh1a2kx363Im0/WdW2rKaiiij6sv6FrWh2XC9UVkgMhM3RnT0dNfYBhwAbIEiFpGDUS+TfcBY91Z/JYLItyamJMDEsx+PURHegXUXsJDm1/vyri6Ne1ayRU6F8wHskLDYicCqw2LEcOS22kja670J/3wLFSDh/7DyP89gQtdcHFNihQ6I8jB7o9I6Xha/oiq9bwiiM5ifunAESBlSeC6VwXoQ1lUdaKp8dBBpE2QQRiS1S3qKmKTTPR5/KKsdjjsRDkZMAfxzEx1UeScb33Ht6DdnqFjRP7tcM80HcAJ390uleLfoV7OwhJ7HkfF5EeSWVqfofY7X8YYEXQ3PrSg5AEwVX+tSDApTQcPsiStc627U2VWs4S5TxyCmAnaUtEmnKSzKyCOziqAUss8oQn+NZWDujw9DqXmWnD2HeBsz6iuahNsFuxjPV54ppwqN0wdDmpyXSGM2GPpKHd9K+3AdO+RTjZzw7J88kq2qEVNFIYwcXiqBVtCgSdXqxePhxnb78hdOxYoRY5j8y6Yq+BShRslFmjS+Tq6ej8smt593LxOqaUDLyRcnait+Gn9LYcygZt/hYVwX6rJ5w0GCL3gq3u5/AB6VqNzFqFpKztSHFnMBbKgUk0SsrG0Z/oh29H6jIM2WCFFtpuVJ7L5L8kmpQ83EOfuO6JmfN26oMcOx8UQ08QEggF7TL/gE/fiC/hDalss0pb5rWsz96F1AY6MwisYhcKc3uxYJIaUeB36h21fdOZ0Z2w4zQh5VTeV1mXy2Qg0NkpIlaox1gOUWPVcTsWndejeTiIGMENC6npw0jfPK1CnXbvqdhErd41/RuVqefdIlhXZJRSE7ZQuNKXIIUjJ/ISpFDqJtry/9JDccT8TVJbHsNT6FjyR6SDRdId8R9f1FAC2IhX7vXMeNVEcq2JOMb8jdcDEquy7pbAekDdlzX0N3D9CAddlZjtbSpwFWkPM3AnwTXFgHZFHgtMzE36VnylEev3InF26QZLLVgqTYI2PULaNdndzEDe6vlHtqNDElvY0raYlc8gxxJg9D4aJUHCZMrWDiDxgaMZKRXmUFnzdHg8A0SjjnqcxKzOJcQIjfKHUPI92CYgeX89stp0OrZFg09tdZu51dyqU5jKIEkhCrDhwSH8Y4HNzXExv0xOdwt/l25JbaKUVwoai4n8YWaa3/HS04VLrdCu7fBE0Fh5koMzDu1nnmkRHSfWvv8AYqcU1RjBvPFbwqdDtBSBHORQnYTpaQxt4kUAsjN5wg+LU5Yr04ga1tcJfDXoIaECpRoqZ/z+uKXx2nzhqtEGeEHMNlo/ucgRsxeV0cQlavJjxqIO9k9MblucnfetDt1AAxOkRuSw5OYClvhCunbMcwNBgf3hcO29R1cK2bYcpSOntqnNKifZMgAfY2AW4BofEyjo2Z7FRpcI8glLiuUhizTozNKZCbHWD0XQ6wqpbCP8yh9cdn34Mt4ZxiAbuz/MZQLdQKdh2s58bTXwAxzm03lNcvRpo40QKKcUTUSADG/efUOrVk2MJq0zJvoLEg+RE6qGSdAO5oSFe/FEgmUA2yms/0/8lJzzFqExi4UgSBhcgyK2FHjILCf4ovWbNO7HZvTY5On5n93fQ1qhRhZNYxkj9oq9AklpTBy001Xoelw5l081gZkND6s5X6y9cojjlnTMJAwFHMtAoGd3sHZ60tKJud3TIGw1ikvAmJ2PkuJElEgRwjg+wzlBwvBWO3bRRIMYxlihZ3ZIP29Cpeq1CElNBk+9DAwKTPP8xM5aNela27lo+g9fJuGjguRBdslMCPST0yIPg5rj/U59iTf/hPt2LFmbekGSA69QgXkdQ51/hutXJbZ+DJ4RYml104B7LO54sWD5wQnLU9ocoeTOBqkGl2GAwtiDzEPdEXUITLr5c3OALRbxNSgROGr6Uu3xXqPZ+ANvwp7wF+l0cNsaaZLNBOwbcV5ZToWs63H8VCYjbqQ6kwemhlmzKJ1vJsxmA1KRMnHOUTF4uUmvKHxpq69iWXgPp0xu1r+BW8PVJx5sQT9jOLYfW+6cJbIxM2ty2MH34DP1AjxpLCDyVKqvkDBo4LcZMQcanR87yWhVemf2Gq3xTuJ/UpEGE0ttX734NO7lKO8Ljy+1xgjoT8p69VR3YSPTbSc8oh6n8/2mjFHkpSa37nvV28qygjIlXh6GEeg08RiqsR/atTvdwS5Nu6VjtbxHpRRrlQ6e/IyWVekXwGVOaCjgTdFx/SjFz4hb8btOfqjbBgO1Pfe5rAKZJ3Kq63pkArXO1TmTirPmktB84ZbdmGS3kjXnMxt1Qjqye1UZtZzJQZJIiZcyivgdTQQlzivRsO9on9g3F0o5kaG9fw3CQcOWa3AKZGVwkkjo/PP7n5Zl1+VqnLmgGvdJkn5XDrUnOjMD77RtNfaA2lJ2hXr2s9Kx2uSBoedZiRvv8QjQ9VADTmcMtg/8vPFxeENdhr5b86nDzs7pS4FCbxnuhJtZaL9HhrLulUgJYC84xP/FoH/tIcGytPTrBGepCQikDKwpiEAMbKOFNLKaImYtmxQVyNl29Cr0Uc05aFD67hkaA6xlAdhRtIw/plxLQ/DFp8YYV03G5KTnvnKYUkuPrQhl5zq62Lhi1B4fJh60scGjYQPvKVjn8S5mWvLP6XmfvW6QS8z/Nu98xkbUHyFwQpNzS1hnBDrGHFo3k116wRtySxBcJ+pGFqdHy+cI6F96RdAej1HiQFT/uvIe2yE1znfgKsbY7+/ZIsodXBFneUBiNf/L1A5wtCIOAddemtXwCoAN55eq2elfXbewGJZkM8lAwtYYLdMFq//Dw72HIfTckhP5V+b312LQTaG7lrjCunutjoXMugM1hEjerz0/xujXrKuPp+4R5YsyWI9Qnpwy1pMFobFCd3wwzCXWi3HtITP3Hkt5tVEK5/vURLVVUcnMHjaxjK/7746G177vS4bZazF6h8x2ZlHIzPbyyyaDf7BMJNeye3DwWjsK7sVRVTCqo4q8bLqz6mVn4wYahJnnh859MR0+y3CMObiqthxvv99hoOd9NOfdFZTuvpqSLrwwQg7/NDPlsgbGC2OHmqGBtPRa7bTom3YC6e/C3vVnYESjce3Tc+lv9Wrd5Ncy6d39iwVl0c7+bBEs2k65Jfle4nLwQCWvw+M9kzbQX0w8ynkaFcUBHoVIJcz6yXZP4Vpo2SCsu+SNhhmAsWxK5R4J6FzD9NrqGMJR1d9MfbeSItOon3Nv728JgS+oyiuydA/BzlHWK3Vc9RBp6WexnnB6+4Bj9iZ0DFHt87eroYfaWMVVnwlHcONtaCXCOlcORVB67uOjs4o6S3S/mj2gFXzq+aCwdEwNTSPD2XRGFpU5Oen3AwLJmc/0HqaHRh8AutCaoeBbKnN9/5qc6Ko9VNxNF1RSNKICu4igYrmrXKfwMCMcueH3DWgQAouhBMHQPh7DuyoVc8/NkCGS0hPYhqQF8dWwBrT12mr6JOUDBONchOWHcwBaNGF64ZYqdJQKnsqg2DpWOGCNzAVZ/Z/levj1Np9S/q4ysvyp/WnEV8jv7MJFthU9r/Cbdfp7PjWFnO6UWtPKY44+KY7imPKMAVgEs0MMkIWNPuEjFW/kIcyke85bt5w5OkTSndCBilbEZePvY5eFUHmFUvvAaEJHiQ69XAfO2VYo2IuSw6rGheCvZw2Rqz7j9da21ps8U6LUx+EcZdnt9tW/nT294hn4NeM6c6Nvr1LmisxdsS14fzVfY5Bc6OvC21XEl0yJSa5zTDUXIBdZzadTtetDw3Jb4eR/3JLBWdfMAyE+9vLYcXPnicrDi3YQtFiOP1qqPSpCaQEReI4zCWXnOVRm4FZO658VgkhkeO4C3lihzRI22I5R4AVQ1RT1BZ8P6rMbxUc4xs3HgHCnQNmE4n9Aopjc5cLUwCIDB/4jQAXaRAwoEt+UMT2yKW9W0SNjzysYRxr/BWTHY6rfrOh/ZzocQghUutSEWBxgGmU1PDsct+zcgp0fswG6QS/HRBPzRNxaEhjqYVz98N1bgDbU01eLxiiV7NeCAg2dyPSLwmNNyeOMJKgwnZtDn0c4LbNoVMi0VG8lJuokjDLGkCuJHJucSUBJnwgi4s0EviW0wyq06WEccwF+u52NtyrQXomPoV9qFKrpeI0NTK+WWEsQikqI3vKzd5MvYRWt5keJbh4J9uEvT3PePOTwwLRx32gOoiGrOm0ILOLE524kiJfbnl+7YhQnkI7AmoNy2WyBIkoNKdAHniSmZD/8KD/J+TE0+eu0VuQFZAvDYiI/6Hiy91ABjP4pQ530YvIcT3IdKNorL59U+X2np5ujo4l87E+XUJpflNScGJ1Oln9BbDen3ozd5IlLbD3U5of54JTBYyMkihgjnqxZePNxme7g+Oju6XySCALqb/Da44JiBxS8pEmYo/tey8m4JKdU5+pMu51yf1VARKG8lh2+BDm/6eRb0sTwlynmuEIT+p4g43B3ECi45ek9aHkKmP/YczEZMqHqXiv41/DoQ8uy48qiDRdClfONJUrCvqeG7i3Zu9fdIJfVg2wAB8L37CaH6zQMT/oa46cr0soHULGDKwKM5vAPw4VODIngpZCSF+Kuew7hM0y6uX06lPkBf+KMln+s9VkzZZjD8SzlfyxUUiJHuGOu+V4+i+SEWxZWBMnYr6qucokLYTyPR2k6NqWQ56taAwUQPhyPUckFf9i5FugK+E6m9Zb0nRyy1HmUu1zxtA1cq6++hn/cWKXmmSHLBsiNgbXiYZ3WT0DkixFQU8CJwfWmMBAS/pzcdgLJvHI6xTeA3/P6nu7ojD7kV553HBsAx3rZm2dJJQyDRV0fnV4jsLVzh0MUZWrNAld8LY9WYTxTQTCvNSnVh/Vgfn1uMn7L6TZZ7tkcLakTKWliGNvxyQQs5iLxVXCW9LoVGuw2R1Lma9CWEE/0LMy3JXAW8EIO7h6LKZ0E4KEaqokdHA3Snc85mP3S+b759f+kkgldUE4Jsgz8rwLOZpghdMVECt7lPoVVRuuOoa620lb1Y5MfCgYeyYgO3fpcK7wKLrCwGb9C1hw16Si0uMFB5xEN5T6EJuiJDbvTixEfGuNCBbY+P6NkNSVpzr3FZF6dnJyck2kKi2Bi2UlUjImrfLhGVT7TJbwag5JoKTijePjvlsu/y6qP0AdFx0gDCG9kqZmstjeS7zpgkiNS5GHdQ3Db81bzHAGgRUefmuJrMnI4B9m6eQDJy5ycXWSfbag7fV3rjYX4iYt7/1brCZquSsGa7882FlPtQXeTHG4Gi9OG2sNcc/FOXWxcJ+tBNV9IFsUGIf4QkOgBrCBZqZLAPwhE207+tA4io9zZMQ3ShJZYMV2NPxBlPjB3ljQmZaYhIyc638yt9+O5JjOgxo9uwoP2SdZGKIrSnBC1NsGIBNX7p0y+//ZHTxij2JM0s2xJn44A3S3EfB5gRgjwdihP3ZZbF5cjE2Nzp0rZWGwCR7J1OzHexufT0Dv2NdJtLE5S6q2vyTKI7K15hEPzb+NZ/BORDO6AOgGKRCYgdTeCU/BuCcxEwyodS6KDPNxuYa6UR+MzRS4ktzA3YIlN/btJJc3mpeANEjQ4Pw4gvEVlVtIkPkQjwLBGybN7xMi1xQwbRieJ4JK29nr5gffIANdDDhK9T16UK6K5oDWPx3sIdJTjXXkd83vqs/PPu6Z1+SKQC0E88Nk4Q/4JBpZURgAVJa2W8Aa0saZKCeIdyn5817Z5qEZwObM6uLmBN5FOj9O7HoYR2ht2wcmTygIC+oV64OdF7C5u9D2TiPZ997iX+Ri4e4onLmgIgaaNDX8M7Nx8BQEa6DuN/+hAH9KjHpRLswzXwp9MkKydDet37rx/G1JLh06Px6/O8AcGsGgWBvel5Zxh6nGMrX8NsLLTXuoPM3ZqghGFOL4ZSo16fkfNgfV/f2OQnnFuu+6ZX44M9EfcMOrvzBDDC+5BCahQDI1KO7L2UycUyZ+y6jyKVcFsBT3VfHxR5qRkkOL6x6OzwBE81GNsdpTD2yYK7pA+6xOSejARdqANf61XSV4xXsBWrlaJx1McKxqg0ITAGfHJ6aJEGr0Jxdh7EK1yABYB5jAu/h1SAlt2vqyR+jHn0UCPf97xh+WMYZYCsCg0xjbXcHvf4q998rNO3tXBAr1NMXBDpcTS5Fd7ihLTC5MUxOcAvAjVCQkq2cihPAM6zGcZgY24z96PQJup1xA0Xpbss1MbhCbneXx+pR03llcWfJaRtBzDseStnBBstZggVexsngyZsiKl8Oxxtdyib+i7KZKN9ngkS7zGmZST1cq/NLyM4e50oSvMFbRkZjuk8zXfFCfQ4c5LoqqX2sMF4ebXbSMpFAwRcUHRfk1vQinhHmVToo84+e1MX5cwHHrJFNaUyfsD4EIMBt3jayom7A4OgkkZJivfn/gXOm0e9HDws8m7dmDYax4cNahrNGY0s/6N8nhxAjPdC1YbJ0URhqephKHuxK3KWmqQHF76inEuA8L1DWHW5/YNOs1fj0YUChBo8czMf9cPWsUO1OEntUHhqcq6lVNZMJ/9xh9VPgAQdY5bMaUxnq65AMT2/1zEnkTL8ZFF80w98YV2waR3jWop1BYff4ZqGQu/EPuCQ7GobM8Wo6lDQ24xi5Fe78B8jzm7GFaGKVPPOdgr2BqnXMugPi6B2BJmS63lszH0Ght7zgyo/tNgofTeIuK9c5oV669BccwvUDlHVkGvkh+Lrb8nWa0FKVHgNZ5qGbOwG+JKqp6J8WrSMi4E2apJ68dQ4kPfTCD8VluabU/bHScrKAqo2yKtWQYktM14TYT+KK0Qe9nf3Xbdstdz7TrUHmrrbW6/V6pFQkfHNeyi0lLtU2a+akdDrnvby3NX4JiXiBQo5kI+f0zM068DsGTbLWwFui0cKSx33+iTvKXo/eZW/WmgsaLqalXy/q+3CLZ5YN7lq/hgOPyXfJ0CNXjSoZDbITJd1gKmF+0VGTUUBLPxdppAdOvRkW+8uo5BNP9ag8Eaau/tzWu7t6Qk2LI4KBCnNEov2Saexyc+atxVEmfClT2NCi4FsXzmn8QvgYZDRzjKFMlj95y/Bb9z1+3stUisgwM/gQWvtD8+sP3R0ioZXac5ZAAUIenCetHxKURgtNCYcVc1xYO84buUGnN0F9O01Jsb/0jVmMnhpJ3WT7W/7JKG1e+HTp+ucbcVhmTNHB7avtQTt8q5/Gp+zAc5HF4yi94J7CmBY7ynj97hGfM0seAm86svgvidJSkw6v2NV5V1fWCnXSzMTWYC8obkhggKgZhjM5bhW0HLqzSOMfgGKBaHfw6BnpuMcJR4ZFz4p1tRWG6ZbQMgQuTXxIww+9dalM1zCye0lghEE5+grGLm24fkVaHN5DeV0H34DnmkjodcgRofXCcSe75+V8O2SEu1hp/nnucioV7OLT8cVdoQD/wDN5pzFi6MfSPepDOlb/M8BL14X7wNhKCxocSk0AA/3bWH1cgM+Vr3nF/mgD6lYZI0rwvrcE8iGBhGORlIjb/9qVf9MqTMktRyaI5r6JApBeZI+psBL/r4ZNZg1juoja9vMc7kWE7zKfgIRtxX2pAL00IhWmCUEA8TM1ltwF6GbcAALmQ9l0Z6PXhHXXnlosbfJUg1jzowGNBBMGTzWnPOwSTYCC6lVEQuYbSso/gLlDQFP8t0mSVWkekn92u6xXRtCZVH5ZSbskcRTeGJtc4Q2OYY028Kk54kekXl1hAo8Hx2iu2hIOF6kWtkfQvsdYxVW3O5uEinnUWTPkDWuXpw0DNMNwAVjfafiLD7vuwAjJy9e2uIQtwjjnrf4aArNWaw5ZacYid/2JdIxPSRVLZu/fWG+NL9I7x8WeIHDxiyAjFNzgfiPdKAtfiYiMScWKC56qb+a4ktbChZCcruB6D+nMWezUbfKGDHuww2wcFmhv4SYlUAwN/+pF3VTCLGzE9O6ojZfBSnpkgocpnzgqbjMXIilPH+mBxTGwVM92Vnvx/3IKPlU07+Gz2ySjLVP+KocWIZVIT8jQOsKR2U+9VwJUabiGAP6Q+DhAGt/ubMR9iMseb2EUAR+78Rxck4+lFhosD33SKQ+XbxwiMREPxejkhLWJjv+Z9Vs1rmVb4xEXtnGnfURKWXasobsZ5xiex4il9F5XM1NzI21KUAFZ52cPscuV4eDGIWmFkxNc3jk6q3ze/z3s3VqOTUO/6objSS/CeSPUuQH3lJjaTqpsfcAAUGsyaKtk35AcJi6juo5sCx2PgO88eCeLNQ/Cxg/6GKEzGXlOtk+7ZQYumgQYDsmGCxeURa2CI8ybfrale56GSt1pXZ/3aj+zQgDKFOETEhtyocGp5jOvispNOYsXvcGmD1hO4JywOc4Dq56eErt1YKphRKJBIPEBrBFnTGztgJXtS/lRhUGgueY3vthOcwChEBT461giA5wRs1ZD7ljjQf73Km9Bu0yRaEhUu40vcxP6dwdOPrpqYXrg+JfKRiRcNH3Ah5cvUdE1G9akdte78TCQsfP7+Cz+Y8K4jeKljX1tx6Lx51IeGpRfJFIoYUnF+9IygflWOH4NlhsApuZM9MHg1GovHC1hP1pFcLyzHwKbj8k9ly4jL+N/fJTX4RZ2UOKiG9E7WkSMlGlr9osodgfDLJZhgvb7EjFQSLg0B6qyJysT8HXqCkhc4ZSUYWVrOepOqTtyn0JQanUQ3PN7F7ZdjbgYcwwdIsbgTR6mgUsTp5ybrCNe1pNPbcHblm47VOozB/qjNQn6bPCGwcV6pR1beLTo0+rvZtkfFctpjjHMB9mHB0/1mYdsY8Ejv4CvwvFWPvdVeXxFEl1Htb/OTs/1sR21iLHQ/WtGeBCY1NWIfGyA/qTQSfSe9Imxb2/eKLH0/6l1VY5AfGrvqzg1/QBYi2XwAdwCVeyLVxcf70aJYNWpEiV4pTAHxsIJFY1iaFbc0kIXWUWF5A87ehODTcEsmf4iU9x2IlUt6ldS5fM4ShnK9zg1aOEvvD+zB+XvxiarUuI+6oKb7PuTZ4/OWFl3URgAAELY6CvhxYTRkewmLForn1eOGBGdKIZiZ3HFGgql1aQ1Od1kNc+dLQZl7JBr6S2hIHP418D5r3t8WvFtqABUUbhVzm+Y8Nm4fuMTcARoUq4ZXM73aitDBEETwJJOFVa7pDL5qGiPL5rxROhhIWNN2WZBEx47XAJmGzQB+ItOVszk4n1llPS5s39OISNCBLvDaZe6JJfSVh4AiExRXPasArEXyo3pjXAEdkcrsxtRr9nVBY5DeDczelbjXzYM5qTPeFi5F6jw6sDWC7j1MOjt5C/w0nYRAFjBcQDMQ5e+VbmjkQkO1gfOOh/lz178/BYBdvhZEE99gsQtlS1UJ5+HqOrCriiVCg1xpgkWBPmIFceMix3C7bfkkyNcPZzTFLSKV1PjPm0RE0iu3Ey0EFhLknubkj9PPpo2HbOPtRMM3I+iZtIYtksC0R/9R2xluLB26MG+DCuAXVWICR5Ki4/jCQRoIHilpYvOhxvDqJ8xLt+9AfAYSWZpqcWt3go5zvbSH/xOIE3VDgb+ddbqCxTez57PqsyKkn4ICIjFqdzh4SW4NH03r+WLMVliu4M27o2aEVoI5ux4Q9XGKKb4DuzFpPVZWUgUokWeUf13pUMqUvEh5nV447QdICBvp/Mn0T/A/KbblWyJGj8aYG4XijWNVDxaC5TDpw/Vx+rvkLtv3B+PHrRv9SvBU2S/dSfhfkep36KPE71dp57PJhn3Lo6RZziovB+1z/nreCPTA8hK1ZxVDIl1QDciKUr9VaqayI258yPJwklG4VO1DxeKYB9bnyNA3XWhbVVNRcYBXg1VzV8SX+3/Rbznk17fjys+lLJ5FUHERiszGnur1AM2ujQpanAkVv7W5dyQuaulvE4L6r0Ga+zt3HHGYOX2jzPd5OOMJfinfG9H6/75I7OYRjso5Okhky+KfZnAuG5Fn90+K/j2UCtr2mrbOkDuMRGkY4XxTFBH7J0IbBf2wOYKaMHd12gfl4iQePZq6FFGyVwUSdtE5032+8NjX1khnUXCi28piXWLOIdIfRn6pQ3Mhd9anLCIeS3tGMkU5wmwmL/lHK/vAtNtlIx+ISz18ZU5uQJfPgKmCOxWQoHbC76okU6EVM80FYKdFQMP7sdHDsAM70C4tMwz/nuWCQvgvUTujKfaQuxLWrnog0NTiEtbAw/hiwACqiJz1X+hb+H53RdyX8khJIMewjT1djhPnsbIkge84P3e/xzGpD+SpI556bWuKK5TeDRgDcLv9CW9YdxLvAn0W//Je9tDle9WwncGhBSJ2/i0xW74uo55PJ85Fhqqj0JgbxauipQB5BARKu/NU87WHyuNDAbMrEClt0FEjQMPYavyyXW8d/9QE6rE399TgPMYcjfl5eerA2DJmJ3aBYIKq37reokhEupSb6qE48pj8ZiSAgEiGowth0GGw4AN5myuV8vZ6/triw1BD8Xx3bTkLyKMvFZUb5oi+Q87VrQbhdbb7QVYdMjOiZeembdIkN96TC0/l5cpI9WcoechNOm1ip3tB0Nc0xflTsINy4yufcs7kV8hlmK5rH4TI32MxGlA+1GT9Edy6Oo5bDj7+96rJKT1jxyLzGhfuKHaSHau+T8UZVAU/AQZ6U7We2WTLMfXxEy5eeD9bV7rRl6V/3h4WAT8UHyK0+VwL/gdTDjTC4d2zFuybNHEFfK4Tu9JNKAcQtGGuI5QhhclJ2KnOX0dnKTerXFEhTlgrZONypcT/3/4MKzxTaX6Z1dqctDkG07oPYV+zJcTUIRTDUsMFxU6KeLbeV1alvZRQozMNNmF1tc1rKjniG5OajL7kW1TaGiVCRph7inr2HKfhRo+0fA0VEN7/A/eHuk1oY++Ojq1rZahk9uw0CPGP7XhYIaB7vuGWVm+7k6CYi8vxxeGZ32zbiFgRQENXzLZIgUTME7KJddCPEESjOw34hVAJF4hj5Zz2wG0tESQAgeDSFttj0t7UZNnqY+nhBxaoxEjLBiBVmBuxfNkl4NvIPodzT9Af0SGFDA0dYcIHHng2ni68F5HlPWt3/g9i9AGlSRPCx3CrQx1kXOQ03w2bEHXF2KCWhgDOeXhnJax9iaZTNzZoelqRWyq7peJkKTPcJQrAzgV4la07UepMZjWBoD/y6TWMjp1BoRjEDei/mBwkrXUxA6n9IAJf+HOzk9cidp/nxPRNiuIMvONeLtyFNpnpIVdp3qwvXLFSiSboCLDVNC44Vd2HfEA9w50ULIpdUzSNQJpZRw1PphsSjjgS8NnmHS70XlEwOWSXH8jmkE3p4ZeJfs8n0ij2J9F6QLfw0aBRFFXjmb3N8s+utTDJG10at5A8Uj5peUAWsWp4Du8rM4RW/2wZuV1iua+q3xVXe8JxtxY+7L0U8gN748Zds2wnyRfwyCDErORy7yojlZslJYmDcz6+mOXabK+5n38TfBtApvUFt8qzsPLMaWOgT4UJEEFcmx3Ead7vkoZn/taTM64uOBLX07k/oA6y+Zr4Nc57TZ5peKtHRv5ury7UqZdqy2FaAFTHWOriGg2DvQBOaMHspNu2mHR52iZ8T+w/IF9vi5FZsS8MwT+4GQb+Zy53nOcNHdKqd9A5C/AL9GW5mRd+S4bccNbVsZKKt3L2STY8wwhCQys41XV59U6JeVbxmsZs+EcZcpk3kKlYaYC8wcfucWPIGGK4zrJcdRziSkXZrGCLoAAXmuJOP+AcolWouL/NUdUZGJMiSKabCqFlQ0IUYzd8dH5XmpnhwnTpmCo7OTNqnl+RFI5KDy1851wnwVzQ/R7J1B/oZvlKoMLNiqqTc9uv6flMIyZiecOU5M4JajUkO1eRqkLbbEaN2sg1U9Lxlzbi0Gm7mhmB+bc1Glmv9pgXxGiy8eJoFy80jUbYjMkwsECRHn+oE1v0lzOH+zQ/4I5UVImdO+fKikyE0jXAgpSt43WF7jjsPHkAlAupEQquOcfGoBi1UytrzAuRPjv7kGCzvJNeeElEgnqGMlcl2uEufHXrnwnejLrZ/PMLnKB2cQ08UynTBrrdxeJg3UKnWPAN1l5Q2NCwqfC5oV+uN7uiel2W60+GxtFctblnjtp0db8bV0mzfQRzNZxtGkmjYfz4qGoxIN0OlJT9lzt3ZpKokFko7gwaoNsmh21nZZBnVby6MY608+mx/7CtceL2Uh1hm7WLXvUVb2snsTFTOdMj9YOxCAbDi84borvmagDf7wo2oxcucOavSnrQaSTcQFae1mVj48mSabtZlgkRoeq98DsdnG308egTvnoRxQKoyukE13IY95YU6B9A89o4+6GVT8sya2KzQeeYhO1b6jUlHPiKwrw/0731pZMSa6NgUsXAs0zyzaIta76oj1vPj/Vek0oamb8Tk1UImwlEIlmS5Ubo7m2pkgW3vypdvpGXDj8dOsGHKZ2q6sNtCHRFlXgWj9wFIDcQMBJ2uY4DGbA7oBjk6HZXco19dqHbNm60k3O4+EBe1Mr55yDQxgyEeVRDrImtNDioD0wEanQsQHLj95j0UQRGVZVa11CMU46bhyf/ycMLwv9fqEGE+w1Fi0TbHj+KUERKhzG5ctAthk+obmL+qPypEfDYKmYyCDaWG0eGZBFtCDuUfV54EcvE2C8xNEwMl5dfgsFeaNcX2MMTKRj6SXiQbi/NYTUBPDvhSqnr6JpP/rbLNf1dQz9dQUJvHG3XcgjWIgj2rFtyzamuI/hbj5d5F0eGiCk6SYnDtTcvndLZm5Y81sA2luuKbAtGAwbG4lWVd6tQS9GH9GZJvNV6k4lpidjrmFFUYbBm2EvG3OrWuR48FBQLBiWN1EZvQjoHFSq8dUlwgktoHn1Q/Gc4d1YEj0O89ePZ0RSiqQTRA+jk7l4ajKytYO8Et62AyHIOQO1numoXvnB6OkgmH6Ex2HRa0qZ8J5pedv7g3PaSEfpFM4uzW836mGZ4jjXe0bSL1RrgaO08VUACVL0p1GRhrNUMKUHKW3BSd5jvoyDTkBCiEcu4EyQvovdXiD6YrBREA72XROsqLkI6tl6Yp9neL9URGeC0xAHMW4V0/YXjH16gXoApaAHhxlgrCZpfhb1E2d2ZC00uW1I4KyaQHXOTaINxm4jltAuhzXImQSukzTo6hg3Wm2j9oYIG845t3NAOytRZn5F0l/ZCS8BfqtZkJbh7SEly6RHq5Siaf35hIVIX+vS8zKt7WmVkxdI4JLTvOoL0lxTlECg5ihfLKKTRPYZc22FSlo0zrMb9eQlXx+gnSTuZjdQoz50Ulae7OQI3hM5bGf+a3klTBisUCl90CVLd5E/KSKgxfudcPajgIb932tQFLITumF6mYEJqX8MJ9vGYlLtNkxTgu8KwlaN5aq1ut1l/sXokQYSAz1BvPVRKXOmefvB0wJXAB87ZJb15m5logzJOl8CznFY6gS1zx4Z8XiS/HrKbzOphbiFADQmQBAXhuJSd4QZi6usr8VUQmC2yuL1OxhWsmSpGGlEdm5/Ec3561EsWO1DiwnZh3RMZNHb1pmW22Y4IoTCjx1kw8iL18uA5xURfKA5igg8O+Fp3giWujqEc62d1MFUWQz8NK0l4SPR4zL3tYkgcpWMMJxlauDeWghM3f9l9e9jImQA2sS4M1h06LM++AU8UMQ7dK7+TRiluPAX999hoKCP77qb67YtVhQAd6YWkg+a2dNVtDtmViuvUJZL+b2a++Enq8k+3DwYch1CdSUS0St63ONyoxBkkl5P+SdiQIOnR1WDtv1dnPTgplxQ2rA9wLFtD4qt7BvMB4AUEtjhQ1/3PV8/QukrNAZtTHzG7HYxZEnJ+za0yZEYC42ANooULY9zE8F5/CE+YlJQ4GDjtN1Me4Ce8hX8DCdanFGCEv7V+ffHKKzRXsjN/qQYgzcNRclEdCGR3AV9wPut3hs7K/BvdwpWpCSKE411YZaY9RKurWYUDWyEh8P0rZ2P170MWD8EO8ZwCOgASf6vUXVv7lMw/K+Lk0RA1BnFdHpD3g8hyjJfu/r3smXWdbu0Xek0LwNhpwj1fYN8a1A+6RyhVW6O068/WcWKTy9UMf+DmjLM33LQqJEcBcma8Zbioun7UWa8ToGBTGgwJh5hMiwkhwcwJqF5+PjIs5o2lkdTHj9VFlB2Zw5NRqy7Q1/9+WUESu7H+inos5TKfmBPfcD3mlfEe3GJYWY0iClr/OPzpu8srtnU7GkrHpXHt2cVX3q3SIxv/OeM2vnt6GzBS04ZYHEQSUfEZqB7fgYf2YH4rsKQ+djaIRUs26BR2NR2rhBmUHYv7eTAu7WctaBnxoRTcnCxq105pCBW9/wfT29p1KcAoRIbtXzQ4/lbb73wD1sWhSyKpMiPARsycmuLSkzLJoPVdEu0TlpLMSgGtNLaGPzNlCskck4oQ4mTfCeVVdSNUoWHcYOdIXfp35DUARw9dTuNdXAg6ZqzPafrmRtkcNSN455uOaCmQh/6vO12TlxS/pUYxn87mUEsVPKizT0Aoauc9W0CLAYDFM41NmLaklj0jc6OBSevvnhRNrbB1oBoeG+ooNg5V7WCsf/jR7uzgKOhfDfuLHfR0frJ/M0BTsmQOu0YsVUw/Fqp2tKBC84Hy2ZLNZhEzHnWaYskzqipIbYDMHlg+YXbXo/bnBjFFR37mrKN4B6lLbzsvpFoa2DpGP2FS9CNwydPVofk59OA4nLco4E5sZppENR4/mXBdXSGc1cbT72u2uCYEP9UCkpnOvIKVqYPGezlbgJmUokhDGKFgBRcjGQhv7KrZYWtM9/maGPBwqacfDeBKDfXC9KsBUeb7uWG2+Rft+c15wXxrCAQ/HMFXh+qUNcZgx5I8a6xalCJY8bC1dXrQ9PHLFC6mXXTKlKNixCVsHgc2Yo+X5aeSraSr9rQBsy19mIz68BqXOFlPeQOTYaH6dvWio/Bd5jjsOOv9TtdquxyhxOtYcC61FcAY+4+m8ylKHzyPZt5YzMY5l/uZEGe8YcYZwk/fLWP90mYDtayy8jUoePY8nVRG4MWTJF/ZszppNKGpe9NnHWuWe6HqFFmFbSV6kVTX/99/9WZfYL2JTU644weRxMw7lMqM9OcoXxrp5xukxPYwqthvI04bVx7mSciGFlmL57fvf/X4N6AuZpZ/f/M6rPp8hfmrbNmwcdalK59kt/9YrjbsqcAf8+EoaZ35OYTyOjmTE/S73O0T3mqagkl1u1eu/dGR4KyHUiRNhYCzy7wlxsm3kRHxtEsJ20btCdGFkgwYRuhhiM3DVFZ1P/GuIw1nFR8qHau1XBsTnF9rpZcsR3Zs46skKWQ5cUZyo+MeIhGBRhUu5eC9JJwqdqeDW+VPhHqBcjpSs870QSfwISk3f1ZYRAEyroMGwNsNFeISodnN7l37mECiZY/FfkKlwIlBJXMGAMgfZAOdzs3fchROQl6EkfbEzx76cGnwyYQEirDKLBmC4j00cpWkx5bnVdPVNkENhxKtHBFuOcJbUQZWlzxJ3iU5GilkDtOabAbttRUUMphPDkaDrUlixaz7zoIQcoaJvScAZkAwRaitFrS2AlSWzUSeEHeh4wPt/iVQkdUsGoLvTVp6JH6TKA1U9RFwNnSvv1C0r6sPMZNz+rjXuW/KsGsTyjcFAsRfpcdRZ0kH1/K2j+IP/SLeP1kj5epJcDfLAl//reSyr0aNcE+Ou5sxUV5ymSb7mzjfDUWlmFPGEOw3szMn43T2OjkaLRBAGCRH8j1YO2lrYXKGtcAlL3J5Lo+KAt+ZZGN23l6HVVCTa8ABdIxm9o0YtymYi29eCHMWZq7E28/+aj0M8dqVvup5y98nox9ph/TpqKk5cussvikYNQ/iRZnLWtXRGppXm7qIrw9wUq0baKwqn4UdGjRe+8adRZKZYzmYjTznVZ7ZI0VXi8D+5xVTwfyPFgWAkOXFsUv+bGkkFsiS3ntyXabMNOjS+I61dsg2dQ4j7SdaUqT7yuiSlLqt/aDseoNgJz+ox9o0qQsR6dMQkYWAp9rG96WtvzvdmFSz+Iv3rmvc0UvgvmibFaCKR7IzmLO8DNJSCY02Md58zZ6zmvckMH6xUTa35vuYCMYusoOC3BWcpK/23mGbzFqi0E5Army+fVELAw9P2OIpFm0k0fjq8vymG9EKFiOQZ4qctZyL4t5cD5wY3F4bnQflaeU9T7ROg/HFDYR5Q6fUChmcjRuRA64QPFq0E62f8QVEjhRC1Y3v8EWRZyM6n7NW1i4AMTX0zjD6Y75IVky746czqVQgtw2YHjiWBwX9qK/6KbhG+PgJEgYOmiEC2blUs9eyTbufpFdi5gOc+uAqGUDqAqAiziJujok6sm+HiMabBMFYbViIJiwlpkFSoT33GhXd5TSTOReYN1vlamKDwGmr3lQunaejMB11g/Ez+v/M62TCbEnjffcyHep/tYy++xnNTtYudjVYovC33Cb+p0ir3us+My80qvaLLMDE/ME2gaiwl4J/DCuE9loalOq1LYAdqwLZ60MtNHinT30eGVljgzr6MuO8/PJc+K6DMuznXBwSeucE9buW26CIf5Y9AQUOWDKfag29GpWVSJcvZRDJoJs0/iPgE39rpxDTVfuQ91BRAGOZsYWrQkKaTqtcRBwb9VMK1mAks6JqLubPfi96Ntfwx1/IskQM3pVtIkCZut3w0YqmYpkMjoWBUUvZ+Sxw3/YAiVMAf9nY6O6wu2oIgVlM3MwW0qH04q00gEppLBjPD2+o7L2cAxVUr20YMXP4AJphCZy0YV82ZKV5iNGiIfO9+GwuB/1XvPCszIsAgriTy468xxb/7p8DoRpXAr/ZByndF6fKy2MG00kGoqXlM0F7KXbZcEkVdOqBR6a126WWADCH1OlzTq7yBcu6iYdy/8yWItUN6U4Z/i9oJyNWTADglV7qYQ9Hgy8m0qgyJ9yCuaO4W+gr0KeJcEJ3aWnujCy9M9T4QSn6huPmAAPy1e7nT8K5Wa/1wjRVnm7YhkS9mAzo36BPRxOrALPHSJSda0p0Svn6TFfshUDRcz9+Boebj4X1dm0scj6pJsYK3Je1BtdPXbL0ssBOWYphQzqPuc+XyqBn+3XwICfMp0XXa+BOYX08g5n61CnLiaxgNvWO1dbAnR+KhAcvGVg4bBbW+zEUja3oTz9sv7iJsXyVwCv06+KG2tjeeCW8nK8tfPq5QTdoYUCt9wcvBMvc1M4ogzJCXcuy5t05+NEAvu8t82PlGLUhyZmAmKYNmM+/7xYxB0IyfABNlUUFt4lujxroYA3Fw0TbLQj/O0t0qYx6RrlWgfBqedwzq4F4l3egJHUqGEPdmCrclltPmba3CL00S6zysqNFWfOpUett7sF4S7G2vSYc6rlnZibX1AsMhLgHM/gkO2FvE9vhhKXJa46H9Juk0+YNina7IAaeKcnvcXlqJS2U9SxT3/sNKKA4y8XxqyHMIVFjgWIVQ6oNkAHTYazoVXqONKexEEu4B3nFNOy+mIVVRRrZheNVX6dJSeed193OUN18Ol+XAoc43WMptZQ9kxD3P43jRkfS8sH/0UlisRaPDcU3nCfYNKWpWWiXNE6s/XZlWPdczjbRKDyMF/odWpWp5s81BpnWuDgx8XVncfOW3Yq1fSacuect+sAGfjExHlgxxLAJcXCslAJuoJ1Y+4AhIu8FuNj/Sb+6vUafq3Vt6AN8WMtFI0zhcuSE63dqtS1AS8dSXRUUr7lfDp1zl2HQSt6YCtVQQ0yQD03F3SMacQU2PUamO83sXAmC0yIDo4SUVU7PXTeu4qtT1K2hRYsAZvihVZImRh7+eHkDUGd+oMOWy9DwCPxq7KxJs7uqf6dCyLnxgwMcO/9gmKWQM/BNkTIhHOfZcpTUUpBn4ZUJZCUimuJvIKtIglpOxPwTsDXxLzEX+1VleodB7Cn3NNkXCPhlN940vBtCjQZS4dcenVLWNVc4EHRD2OBbgTKLu5kmRjUSdojGmruLLwQ0R3lMe8UdXBUGBeq80GuJsnPXe+eX/quKfbl5JzgdE5u6x518YmUcseZcZsMIItgDMqzxiSJknCzS5AIz1+NnQGENIPo+QXnJF7SbCg/+RM+fy0jaMCeB0YkILRwK6PAB6Rm4iEQDKvsvLeO/yP/+NDwfhG9wNYdggazfYvsX3BqcKvZi3V7EQu4OHVPUUPQTLPU6f5O79rI7lISPdT7vVYHpu1lpH6IwFcTaT0b4BU7FHbaX8a1G2Cwm3bqiwa8JRDyuE2mutBJFh0MohAiZhsm5UMubaltTe0d/gwRw84yErnB9IMXIkgxdkzYG2I5LnZUPLMrnoVRvBvkNxGqAaveBXThB5CJ2mtutWj4HhuVMUJTFkqYKV6thDnIUFQP+hBefeOt7UfoN1bTryf6tIPiWoeDB3gAJVCoo3DkGFMavW5VmUbhmm6kGhLlSdAoUurteasP/qUk2cwkz+3u1PbVJYlyC62hxBHrDxB0Wy+qNUkqDmxy0Cd6sO270zjr4DVSV4GM4VMw8VAXQ8e+VB6OZC/Hdb0MxNGa+6F6eeAdwLBwxYYz9v40XhkNVkqzYl+Y5EmoIS+KgL+0ZunpyW+V/CT/R9ocAV3Ok7A2I4/eezBJ9JH0nmXw9ADJm6e1yCS7psPLxHnsfS2t86yNix8h5DrGRjl2cljic9VhXkFtejkIfSaQ1MM49dWNYNUFjbKRYQItQJyWxKBjdhn9ciMB7Xnx1v8+AvqXLqbTRMT7ZWZT3XcHC/ySr851j6IcRrW7Oc/2coTLa8dTS12lojqn95LcJayMS9oEP14eZO2CgrH3+JQOZvT4d4aVdc086BYLOYS7p4IMbHsf9b7M3A7knuKvG16ewzqHFFePDlU/+TwpE2YALkBehY+zpkzd8ZeNrEZlETsXZPzqnTNtUc1EEfT2Buc/6LXT6a6T+vQQgBmyKRKDRQeTxznu0J9lGGxHnbUzsQ+KAjd8EAwI1UxDqrYeHgmHla8NVOa7sWrNAvzzTP/x68jftpUND/fUacxqbsYUipa+RkBn3/VjePv1dB76esLx3R2LfsnuJJT21joPOR9N7t8Rz3xwK+DBEJTprv7UOrRvD/vT+T/zJ9awcJhwDomcQY5PC8+mkcgBf3lKMimA7GVyaOrnMAPDGBGmVsSzCmnHB2mcd1F8IzMsvchFwKFW9f4khZDwjbWIWio759QWp9jCaCAz3SPY4oD1kTMTv9MytTuInJsfMGbBNJE8ZA2NAmIdiiVVn67cpG84NQy22EMLanm1dO6Mpe/9Ux2y7SupoYM0kFPlDon0BSt6BniuG5cIr/9QAkRZocVU9JzfaUV8NyW9+M9wYSFgUDoIrhOQV0XIeBYseQAoHIZARuEzdc+Sh7gWtRHoxJ+4iBbIXWzSDE8fB02+6wkdK10x+KuAp1Hh9k8pdTpftuzdx/WGRgzDD1r1Pt0LHc9ft79/TJM3BNv3fXENMcD2gWlRvwl9hhCwNehhzPvMwawi5i+cPDJ5g7uvw2aAGr/orbeu8K8n9Q6+4UzltLrOcTUFTuzz84E3x1oaE02gwMSJWCSuWY28eid0+IYoDD7w/XXWWbzLZ1zoS6gmLnI5yB5EuExZDrWuQbr9t+jYHr3uBeXhsomEllowTGzvjHjw4ggLpriOzQ5KnN0GaSAYOz/IvDI8w5GzEod0695HOrIZRqNr7KsYbXoTUdUKApoWnpvFSXxpiWnDx8/jR+IsMNn+jx8U3Utm0wDZuNzDVOWwuR15YlkoVSsAmh9xFP2NuX4SmzmtK7i0HpJqIzMct5EBCdSFrfX/SFcTHuuQmX9u9TFUl0Ml6xntBjB/zkJ1siAbrAdmBEN+liDiJq9WnLW3r8ABZL2+bc4TrIH/xqNQTHWGTSqRy7nVZ2XFhHbeELDKgAruxA2VpMDse9DY6yyQmGCcHbhZqLMi9RtL0Syi88BvNlfdbWOMIwBC7tVhdLkGzFRAbL/8XPAuoueT/5Az03sEUPq5505C1vJXZbQD5pDxhlFdws5R9nyErFEPqtKvx1yhZPIM/NOOXLJvACNoMevB4Ry4OYB+0zbLnzehFwaXpLMLPzEgBc+ZtnrUdwR4S2rz3LmLIEvTnFN5zvY47icdf4vd5Yaae/zcZPhuLyMdLvfOHMCQk2ZUJrQ8QENUOJPxZlLqksXytpJq7naWxyz5Pk68uKqEJX2SbR2Dsmm7UclxBAAERb0zIpkRTlvN6Yx5FVxJ+UljEzcfnm81bQ74X08IjB71sPSoyCrKxjTiDiMW9ugcujNrD2Fb79ZLP7djsNKi3XKAFSy2JTRVH7gbTNu3IKEWw8tkS14f1kHosfJ5399fP5M+elgrcpB+W0W62L9yIhiMyszy7dhFoyU9nycldMz4bvuez3Zygn2LhbR98/RL83d5HOooixo8beykCpcnsF4BoqVidsOE4VNf7VaW0r22QkwxYZluTmcqLWMfo/QpnRou3lqSuvOtU4cotGlDhQVjdfnM/xISL8NNnE6ort0xP5SJQSv9VHpLNIxdNWxBW60YoBd62OSH2FwFSVlay4s3bAwS/QAs8qcnCFiTUOb/xlecHHuQUx2j7WljomHCDg8YJC0SDXodLyZIVZyNCfxe0KnD2HVMmxf9ouGMvY53L19zTnwYXhKsaCPOXuhd0NKDl9ELPyZkMP2y9QXhgLc4QNKe1n0IUQvbJ9/9RLkTjrpbQylVVPWXHiTa+HabNfR/cuCIbhbwWsN0XkrEJ8DXmY1HJsfvqNYsr+CZluL6rNH+oAZxjwB16yK2OMe1NRLzu0N6fEvJOTq+vXUKpRjBwPKfGoxWVj4Au24/Z8p7rCrNjF/0zY14O18tgUfUrQ+FL0y8BYaDw9f4D6StI0pqTw1nk8dq/Ax1SS9vLi+9oqCAuzGqQK/kRfkonTSXedFrACtPLHP7TkDHYU1OKWBNlDNbsGa/8XmDKRylSaFnkJkD57Y9dPHjOlxBiqZpLd1dRZbQwECgqdE2YDMDe+R5r6T6o+xr8s+B0eAXaN2WpaU39jfFuQcpb7hFno9XgJdPpKPL46KgkNzejB5Kk4d4FZZz7sBPeG8ovPZliCalJZhZiyTm2PQOOgrjFOCVvK1OphlZjyxQpgBU5c4p5i+zMIxYdTRf10alT5o7PVyBtmh6HLd4/lxNp2sYx91C1KGvp6wlagiS4e7psVGaGJTuZl8APIOfABDnpF3y66R5/HyVtlZtgRf9YSM8peH25f8EPJkolj5lcyvsTP+E7z1dGy1wOPczhlJtwDC0ziqBQVSIQXl+iuYc2Q8QdVIMrauCkENxA2HjbwlRofuLbDIEf5ne+En8/kSMkCT3re4tZQYMy+QHMEvpm88erx4g7PHpshRPwvMAwD6wcr8K5xlZ3vwAMUxLjrHOCk7UDxG1FVK8z73Wl8XM+7yqAHKCEycVV8ipHKCotKIkOgzO+iERpZVeBAtEPdPlRnGqOxkDgS8FJfTcC42Wnqty5ksKQlJBW5xSPUjwmFSDwf9xbNk8MoqvNWsqOR9RUencgzZ/WiIo0gmEBC9r/rvctAFPb6q6aiMAJDwz3TrAwXjNPLcLkAPCk9Vq/chtOxMUOZ8yfrfil/PUUXREU7Sq1RBUc8PUz9I8URgZJZh1DS9cCI99RV+9uiOsKNJ7K8MBIE2xrUJTcYi+QVJwjbzuLLqf9EqS1rD1DxWs7Y1O561rKj05nlEhtAvV6OF36DPxLgfi/nFaWf28aMDYdi4iheOYf7hRRXpV6PLJgg9AyU/b/D69+TV9ufw2UjeiaEh9Tgg/3acOLGf8ozaso0eTC6+5VLkvDFibv+F1fb7d2hU3E8dSrR9eoEKqg/TQ4OaIOh52wsLMGvm53U05Pe5/N/juG2KEa/DQYmXHEkVqqS9I6h52rtE0vPyzY8BjMQN+I1cH5CTdtj2uVmtxq5vTSh8HK9Ac5cNBoOQyv9mAJOibhVllY7d2UvkbdR5ReKuOg2TddYgAWLNS2GHFvMlinvpciXhOZEmQpD7/LoPVI3ND8buQ/Fh57ErRA6FPa4RPmXWVSe1o4uNUPOxaQhlF9MeGEv6/YjSdGXnvmJIvSBWJToxZZelvYswrzEEpRlbgyyyLrGuyuzrj9PVjU3RmSdBwBpm7NXMHcpOX0TuEF31kfnsq06W8MPnpa6/VoQbqT/lY5nQ+9i8ZElB6xtD87NeRXa2/MCaEs4dkC7tm/PXbGCx7NjQ66mzynH/8cAgejIr5c0GfVBiszhQ6r334ys8uN0t6ldJxvBJE4cIH4Bwhh2mey5bVBSOaVVyLy4hR0rVO/EXHckM9LOM9Ynov9311HC/EzNQJ8pHJX7NKe2/1UPIMegNXkVQ6KLgTjODbd/lNJs/ld6DrmpE/O/g5UN9Bg3NIGphd3gGKLq18e04v2bCl0WUauoxu+BqsGbfPK1ATOdKKXAqElk9coxs4yFu/wNJxLfaPWAsaH121LeqPhhUyvD2DpV7WLwRakwQeCCNnIrVd2eliOJiLs/2chS/va9czTBH89RnlDB23VXYX7RMZQRWEP9q8gWf/K5ZoYx/1P9YFOibOoYSu2L+JP2YuBVRBknp2S9O0GEXUNow0mTH6hNm3eeAwCg/VnvBOFv+iR794Vgem99HBcrEa5xv/lpAg6qwWt1vklRyXU0BRapcSqMM1FocGP9oAXWj2FOYQ1t6A7o4Da9NwtSKNy5pv6i2EYc4tamFObX6/PNLETDkjzsMpbd+Cuyw8ecFTOhSUu3CxPdB8/Ucg5f5mGARjR+yW2Ey07h5ZlaCczm7p82FTXxFcsaGh4FQ81KCupJZou/8GRg6kipfrPpoBKVoARf85RofcXHV5twfcO0UmY9gxcMQrm1jusky/om0pDuuV7J9sHJIg74x/GH9KW+Zl9dgzA27x8OhS5vuEEt3ccr+t9xcLzzHCwKRvNOZ8a56rPTH6KNkTzBLY2lT4TE+FEVlmoBVtaiZfH2/9ZJxLE3yshPC8/+zmjWclN0tQEPDFF5RNuPug25eOujB0Kw5OMZyVNPnbzJ3SZcx9dcVCNBevSe40FIL3+bBMNIE9Nx1PwSPjDVplKsglVDXR3ptcnFcQcx9xyyJ34JSzGJGTLT5rFRUo4AvGXsAb07SWhzipzd8Rqhod2rwOK2uORe4q78i9GQ63cinuzgBznqsebl/k6jI5tabgoXhCh5jYcUURZsJmHAqxEnp9U5yEsg3CXMtO1EHy/syryikXbwxLUJ3QLzfy6vHqeyWU99bMofnTQ6y59nmzFTyvH8fSd/FATUrlGPHIBIRVOjEPByG9FugCObO9SEKd8HqWG/EcJgj9jPB8H+FH6EVuH2sa/er8zPX/OalaH56tHifJpjcgTNbXLCP1TNY8pik35Q3QnrXgkkspVZZWrIu/BeYhm19PqRDQHr7yKu1p6pmjwKGAsuC8gxTSj7PeLIlhobbmzhyMG7OjPedQ3BAILV88R263KJKK8rx2TtJVfNqbmNwp4yuF9HNn9IdNHKiAvM414ak/q8/YfMW3Ql3Z+Ya3qyoTv3THM2Xf6FOuT3a6NCtbNCpOvp+B0XgHJbA/cQav5C2serl/iz/O9aZ+6iZZ2H3SLSl3DC37y0nGdZhIxzN0J0o6fZKQzz978bfB2rw9uS7xhsi6ue8mW2ifeSyEMCPgToLUqriWHLJdcaDVD0Aoh3cACsxAQcIvMMrsJc9r2sq2xwC2ITBdJAwNHaN6rBboO9O3F8BDW7CkmsCF822968MqzjPZs426ASyafB8QEJkImLuJCB4nivkuwc9FVOc9KxRALa0WApicGDnDwKrHSfgV27QGhLDrq+T5/p2xg4LS+KC4Oj+pQHfbO2TRFBT4I1qZJE5AWRoIubxYtn2XpANG1z8qKASLZbpzuSXCZMUGJy907yo09fMSxgMnRSlERPkGzrmFgeMi3VAOakc/ivOuY4laLUiVivsJgtjvoD0x7N+p2eeXzBkbJDMac3Ld4Th+QwSGI49W7zBy8SxbYctHOj5DCuIVQDx1bFaF1bYG8LSvh6NOwL5YKGHQ/EI2eqCmZVo72d+UVT+uHEIyRc79FmnuoHRcT1y/OuRR4ohyL05kBOM7MiVHoWErObMn2ET5Y1GWKvwvAJbIEUQPBJv6CfANyygFo5ZFqU2kjGhKi7DFNYUNjpKQNNqQjZXSRVT01GJxDPAZaeQ0GzAg5gsYOuObSGiVUwrK2ikUsnkaktJYRM/Lg7kysiZW8X7B8Bhr6dSDtTEExLC7EChASRZbnrmQoi4dMx3EPtxQF8TIqxgYhRpHt2MMaQoYigPsdJRTwM6G3x9ZNALinzB5i4BM8eBYzhR5qishE8wyUEUK86q4HLlL0BgOWKzDTiftjCWJo7hMvnpwmXjOJ7K0+xw+6FjtYfQd+Xo+CBD9V4kk8A58KMZMHzUF+uYNoGEeYWLgVA8ifC/NLSIoK5N37BvDotgDefVABIvnZuBu2tNL0A+C/1H+hUCG1zcQxdL+zmURivPRKNHYt39NVVDmw5IoBGph9J9tB9e+XvGHyJXO3pj3EtSTlltchjdqPD+R7n1DGcP3uwZR/muRWkHrUDgrvpCSLwPZ4oQIYWIC1IDsxOZiIYvtDH2DG1SO+FS4KTBC5NmpYwMs1x4t6MPjL5CJKenrpB5RJUqWKymo0w4GXkZsuGAQIXjdnc66pVnsoI9pfiY6y59Vth/uh3dPPac0kw1oTAVJYZd082+y4HP0An9RKNNDhEKhErVadobpNx3GueV8mJ5SNj0Ww8OZ8jWTCG5TDEAxMYlmcSWOJ7+HVPoHtlzJqPPQvMfoLzcBLt72u1NbdqF/JW3MGdXHzA8iqMS8rDatfJYFXSCZyBsYz20Vq5M5d9ElRkQ5p7+48K7xAuDc+L0dfCK+EIoCWJLX4/yoqPBt8ZbxaCjdiL9sO4GR4M4BHVRSR6pdbujB0v8Kd0vhvFMZ7vg70miy3RQPcQvsUPJ/B9pgl5wks/z+E7pcJsR8s8xchObPSVAApjgNZwI9oFulBJTgCcXvaisbhSZbDf0DEaENrBkCbfdavwCq04leUkajr85Oob0eYAA8tGKHmbNzyrdZjhgtj76qKMA09pxuQa93fgRsWlMAABIBwfWEBJtVBdtCDVxQgOjwA6nNH6AMLvADIdc7AiakisIWUMSxdn0H5xKL4hYkGksYfWjt5EGcKKN4SLYtT7vMV6uIPi1J1x0UVjgiYctPJB72y9QuXJuNZoN+24BSZ4C5NnL5Nu2VddjRNme09QWL1rl8B5xbrzYRKrxJVRVvx/39RTFV3I0wVr4JJ+ZDF6pfpqpGAJO2DWFjvFOlqNgSqy5lqWZjq5W2dRcXRUN5AXYQ6iXKwnrIwAABBZ4xPq0v55Eo5sW2Y5sLxN9oJxhKNa+HjGO4ssm46U5dRNbveTdQI+RG6gwY3uZEN5+dZn3VoqVYabJFlOinmpHQbxCD93Qh684bG6xlo77s5wopqs0Y/68HeRq8hgsA84dPizgQ1mg/Fl1b7GxzxAHeOf+MaSIGWCtpAGd/A7j2II1v0cwilFOj5e7F6tkhemEFtTErlel61Lw4liHIQX6ugpSppesG3yVjygCvEwys0hTDOlLY87TS6yXLGbQCT3RCGkg57ICAUGEUB+gkq2jIQGh95dR/GMh4QyKxH0udLvrGf19VQXsHbsG6hyrnzy0qsoAV80Fb/iBwvJeah5qIXgw5szA7KpQhbQnJ7YoiAT00v/cmEZ3afjUuIBk6ehL52FWhRYO6n+xfMy0ekUvQ9wFBAFE93qzA8HjzVv9WvChmyLtfl9Yq61kJZuUs2OVuP4tDQ6vIQ+c5g+Te9y4H1l1c4ARkR0TPe6HybLSfXjhBNG+o+ayfQdmIE6NgDgee/P390nGrbxAT26Hn2IKnmcxNjvVtE1N7z5tNyUSt/BCvZtaYniIkWqNjrmUe/iiOCu34ahT6G2bPdyW7O5X3W7nmPrScX+Ii8E8uKELPf8Kn8zNXzfo3IrtSR55uHvcCJ8F4R4eq7SGoKZh6kJBProS6YymLeVBbXgJ3i7fe2UxATC13wU9X/RKpf7TE/gbZM3M9uPjJ1aNaAfzyZ/opum9DjikXMGHvx1ZzQt/5G84wrBcEEx2qe31MA4I+BTm6rvJi4Od/8ZHnkx98kREQqbUtF9Bbiw2QcHate516eajjfmP86+BuCGcpRBHsanCIkUqjVXyvKJ4AIKbkIjVTsqd4YT+3lL9qKiqZw6qgi0vm0rQTEqZNl6fsptatO1JtkYpZc8X8QbVaSl4T0PXT7fj/4/Tx/11IzYCpH2cOBhXCLbZI4TEuuZZHGYEJVkJ6pShjGpIs2IoeNawCNJch+aRbqwG0sdz4e7bHAU/SS/WfKqAWCIbqE1BVOciu0TsjbHz8lQKvblY+YA/g5+JTFNUK/rE+qv2jxreLSVH2dlGgvjvDWuiXK//D44C+RAH38voi5SPOrSry5cIJjRLocVvCevXinLfzzz57uroxCLZlycxwwXy6Gjwk/voOhdrQJz/Mn/dXuxrYN09sUBP3RXDas2RAFJ3PnzPA/3emGKus7jIMHJdF9UhyWYxIj7oQZzKXHWsf0YnXJ8QklA/fonNMeYhVuXCg0LP/EQkhXm8MPfNNxEpuB6PoubaiB5MRKiOmOCL9kEcWB/PkY6UP+ddOzNSJB7TcAMZC/kvwVVe7baizifFF/sVB0Gm03aZIRxLq6zyCqcC4YkUy8kF0VH3RGr0xktAELdn3KBBB0l6WZ/QP5IMLI5aTUyXJmNtq8DKkknxiUIjLEIw+Uk1Wn4iUB2EJJnl6QxmWjYlSD/sEhLQsEyGXo1AMqWl56KqEqWshoywCiTnxFLI13GbWSbiLdTd5w2Fstf6n2ajBqLD38TvEnbSGLYcloMhSFSmMpaQC5eqa0z0+2GE2SIREEN3UEsvTfDfc4nblcanRAAllksJRM9kuehNfypNBSnM0JHiNdsFilPDl+pc0KjRoPqEsFrXgpcN0figPwMHs87juV6v3DPzcWS7VR60Bpi2T9+sSKZmdQugl7gRshPGVE3YgDD27JaGl2EVLQ+7mPzH8RWQiiZbsiucMNaN2f2Y7jwtxPNc7heiN4Dq7W7AV9cPeRsh+3rkO3GCAfaST0EgBf9OBqsbPaRRpInKj4oUphR7M/eQonf++nmU2Dq13loEPRgT920i9H0DowBXadp25frRExbz3xIRBrhZvyaIkchGglvKBGMyXnamBpBoeapzxOiUwbpyCC7N6a39flbULxpqWcNVlrWyFZROu4g9mYCLOCmK8lbHv8VlYypjDIeQTdhb2wcxPRGXdDG9UrbAAFT5CoBfV/LORV0BREaykMQI1GwqDPkORLEypKizgKNfF/2cVD82uPaKwJ72ixA7DhWZWPo4CgdV9PucIpglKu8Ex6wOCOffAjgFVW4vBn0vkQegGuf7QSc/dzTp+9ogCWJPb8PjzHWyEwpERQ4sf1SB9+c731xRFzi9ZHniv0Sse0LBpmjJSDhWWMDQKVwJzZjYZcB+p92g283VCZQNee6JCCTJ8GYguVNkYxkokTacwfSnq35m/a+1mUJpibNCyyXUtvPwVx55XFO4I4g9z4yZCHC0u6iJaNN2DYOrEoqg9XIpcyDCnYgF7UuTOr1fewG8KHbN590RpGJLpXk4u3+3mPyDqHsUcS+5IeYVurrnvRKTfSgE0pUl8tRQwtLFOXKuHPL/s7azLQy7JwowQXqvTCddcgMA/0RiSVzvMAb12M0suBdrdEn+nBtxBNQwPgytT57BtrE9I++LgiUOx4Lt/EBAhroQFOgYZrNyah+SEjiucJqYkmudBW6YWEkWQ9Yz67ynxzBPHq8KwuFhpNkZ/XA1E8U7bPTauA1CQYvGjXTxGIZf+kuEJtltSAojZZD2SWHnTYtihb8sGlCqNynjccHOgrs8eaUMnqMytsdo2957udD5DNpEBOUtscOGoQlBQEjCgAaWaJlP+6JZo/SccEKFUC1E8X6g1cAADt1n+wE7Kz2xCdmBx5IfgYqLBwjEMMGzZueU07KPtzLzDGMMw1myQRkVwPWZ397iAMd0Ysb1Tk3SvhjOt4FHG2sEhrznkFkpnAKLvHw2eOaAutplIPlVRHsYILYHAIkH5OnuS/1OOlWMhYfKpowgxgdaoVhrdB17K3wPSwXygAnYbl6IOxSLTFcMxYxH30t1bPm8jfR3KumrHXjLB9xG1DE05UgDaCpzUMtRBJ/8pEaBYEaguoyerfncsT+7hEGQxmF9N1YIqKw/mVyeNfSlBNMIEsT8dRfqpvw70n7eiQd7QDfrYrwOppEHPq1+MrtcESm6TaIflarXboek5kWdar1mNlNTEpvW4K2Bk1+qkATFW9nLA74AAAZIYCIFAIA0bnWElXIYHnjAUdMJnpwQ3VAxMUJ+RBL0vC3X6SvgO+tgd5AIxChYvGq7Vd9TqwF3BPLF9JTQAPBb3ceCtvKTACz3VhX8J4HPzOKFOPJoG82UUEAAs6M+DwgfOkhtB2SRkuO0eJALsB6Hk5FEGhzhEHP1X4Bd3wrJ/aBsvEYgCUqX8gCvfhM2s7LCcCl3Yvk22hjJKcQArswTOAN8h4TEcBFkPQmOz1QMZ196SlDwSziU2Ibf27hT3Q1MQTNCxbc0xrP+64GlmG3OnRocnUyvjGslden8UWR0jgn7wFWM6Zkl1H5XFfz6HpZ+fXj5xZd7ZSVvrw5uVOpepKJzsw3l4LYwVSFxgdqYx9B3BCJwwcvpcrIwZD8UTEYtQXRgRPqNotYfBfh4ZPz/aYBVlK81p+JUisSu75DHdebroWUaGVQfsdNQQwE7wtb8VZSTsY62Nbmo6ux2Qmcnekh3YNjPveD3XfdBRuXtbKDeUW1ieoWmYuTNBrFyxCO9AtupsaJHkxaesiIDawIQLByn8dZvBpKArqJnGKXSijLj1/LgepOYBdmcpJNxpDsRObNNxl5lGcdnZg2IlV+mDQhaalgijZ0bdJIhBBaooDUU8rKZY6H4YN5NBbR3B4HDT7hipLPZZC5bj+aPnl/qvw8uupILvWok4Bh4CMCHWdjc0aA47rBHyWXFD4N8zPgBRPHY9M0LuthMw9Yy/hgJ19gwHUKgUBioagrbV8svL8P75IjHau1uH47UzatGpdrM6qwbvdcnnhz5pGdysMrUs2JHG4MkGg+/Scah2bh/UzRCyveT5FphEd8QJCNNAb4x80NNCKsaa/vVulJ5apSVFhlxmpiC3y5mjAdTxJ6YOxqS+0kc5Dr6H3PCIgfwSnWaujs9UPJpHkpgvL6xu+ZePA9H2lZvsLLcRerIgUwU5fmeJ1wBWHNa9nHu76DDM1RVmsaj60vanXygkEcuTQAZova8IhcLlzr4HTYhuBOQmic1uvlj00SZ/JC2A842pSuGrKwk8T9UF3iyaV9nUuonwUHFo1n72IfrBMO40zxdaNsr2QXND+Qd6hYEU/yB7z324SO1SU/iuE+Sz9r0ZJbArlbINWsdrso0K+5FTdSLEzzMs4kKhe5vl2AkSPezoSUrYQnS3iOyHbP6JeTfc1ZIA/Dksw0jdFPRtDs0AuhkAcDscgrs8eobKRDdC08kX2FkZ9XOugiLLoA5MduNtlT6g6Obi7ACO1asg17f6D3QqyjifdiG+1eykwh4NPwHX9KnQmUwAoruvISStfXrcN/lG2wRpUlHzktJIq/u4SSKkT4UsE4Vl9KJygf7HaZB/wh3ehp+V0phGepPhPquddWRLdBsW+TR8/HAq/QVmB2/FtrgJEw5mYPj57sw9Iz9WDay4PTL/CpuYoATSSFR1ylnSsAOHS9iQNe6mG1/Gy+qJzW7vgv2/oa+3vgsIwKndhaKTO+gBtRp3E4D20mOYUPkqAAM+SEhbVzIJpJIn6IiKa4V1rF3tApqc2L3SeZPqta0rjKYzswpalSrKqvL1WeprhunkgUHuGg9YJSQ4DoYZ7lkaSxiE0RpdWRuQz52v9K2Bk5jPpXF2cNnfyo4pkH1StQp2CABFonw5lf8OG4IKGs5c6B2Aw1tZq/NRLIhPXseVMOAdICfvq3iRuWcUFcCTbAs22lH5I1MJB3Az9vZMWcFdsekCRfwdcDAL2XZzYZhNpS+p0Ro6zdLszUrEUf1JXYAFsB38TJL0VfCYZYR1Ba4UgD7a9WuBvOtUl2VqPRN1j1b1AbgVM2yK40X4eVPG85GFBRhJW+TuZmtm9TREKYcTZuRHAKhaTwTbOtMaYpYv1WqGeoK/F+lFT2UsZUiPdEicWQ0/zgO7CElNu6ZCfMuCyjH2/az0Lhbbn3Q+HYPxB/vAJ9VMNrPQ3VYCW7pz1CmkiKIUhpVYtKfQqOZlEg6uolclLcN5hH2fTtlPfLmvNnN4pnkphKBwE9PCjM47LebjCTB7UNYxm0Hqg0sVQ7kS9cuwURNe+HTCRGPhvQmwZg0AjGH0qikuFbveO57wKDuXcK18ODWp4h3oJ52hsCdEYFTEPwQOQ4ktcr8tn9S2CqwHRaahJAHuyIIJv4jPkHeASS0YKDziYA+SciYjG2wNZyJlNnN/GyrcB3PvUuTRJl9sw3M4+wxgJcKikStygzWDxwYuJkWyxBXf29NtuZKZvoYLLN1tCEUvC6iIRcicVC9du0aMnLeWAQpVafSpvUrIesDcRR40/IFqkKkRICviTvqNYUTNK6FIDRd9JpKfiY3CpOlFHSfdW1omqNaCMYTeOYvwVcz4wa73IlXAM5U2a1YCfqV/LLTEoGsyoFTcomWQ+g6wqA1s69pavOuLjuo8XFBXdKruLwtr+Mm9BokY1NxxiSS25hOeHwbYO7ctHMPMGnq7dIxlvbXd6ruiz6WuFEGqe+Az1b68XUAPVnXAYtqT4q7T1YOrFA6SZfer+5CIBL3ZkefFosiEJ6yaIaO9jBFGcu9VdOACFU3pOiPWei2aJA0NsjfgRvNRYaWBz8hR8TfZ2XkwEFGLHWMBs0B8a53KNrnzSWw0DgZulAiPYIVfNj66o6MIdaIJfjjv25Ugki0hqLUJa8YA/mq1oeqQlUQLZCQ1MufR51xc0H1DNQMPXNofLqUz8u4hHHoVGVowVkODRCAeNFJpGmFj7fH+nbdQwCl3Cuw+B3fCEJwmfFYVFzl9ZTppDQdVgp8GtWGG+TL3qg6g8R/5FmshlPj+cYy+U32rGfT0gyKBC1ei9kHny1plcRcnMDc7dVvasap3NBR8tA+ReFWb1Ab4sRGki1oMgYsLqJ/TNn0E+8aef2MaDJ7lPlWht4Ab9YDGM/tkWw+0cTa+YHFClvKtYtV4Y6sW+3K0TuG3aAys6EuEbCpfB4bN5ju7xpjtSpd/P4SO+wqJ6Q7gwm3cb34A2wTa1S/+/HFeSN1RoLXJV7P4CU2fltQFlAh08mGCh6xee0qU6W/+BoXKOQHWlCrrKBZKRScsSDH+0+46weORuw6cmoKKGZONteJ0wPFQIPVkGPxffD1UyrigNm+9qFw1eCaDHCBtxmxcNsQJ12bXK7f2jYEKs9rLseZjtBVpjLiOPN63oGRsvPNrSBQl+8FWrDYM7FVKO1mfqaT5VSCRfjI5ultpzKJNOPHMB6PpPSRv570uAGlfO4es+zrmyWC2QtxzB/rZceNz0RN3Pt3cY6LsISE3J7S38lhseMs+sC7nSPFJ+5lHhAI66CZsw9mWRvWS/vjfYMfSek254mSUwGiC9WAQwbjOpNFu7cA2rYNlGX9McwQPpOts8W07pYCy11rxJGSZAqyqnvWmpOM7tbMqGaf5f+DN+IyZj3lMfIUeJuEwLXS8dR2fFe5e8Jj8HcjzN8kFAEMbwaXIpF1ZcMOeDQJe7sE4UoVqyzsKZotu3eRfCB44XP1FOB2B0YLj+R1TDJOMDbCLfYV78n7gH0NXtQo508JPJAGEvyMxt4M/wAOtQJoYyBk0+zoDzQwUOkgK4CbI+TbJmA1JQAk7ek/kplo3n8YEVzEz3Hu/WBIA4fO+gppsklLJ0rwciRwDqoigY72V/h1mHOBNvMJ7NjYKpX9GBcHLcm6DdHDYGM7tbEjfQqKM6RLEANA0Ci5ClAiZRJn3sbRIBDH0hk4XoLIGqiazFBU4U/hXbVssxulPfGe3+Sbj1OwfRjSsrEn+2w7HcNxVFRP2/D4U/1v5TaRBd/j7tOZGIJLv8YJD0Ph0laN2OVQXUwV+SmxoUif/YYSlohH7UsJ7cyBBR/QlLSGW+xuA+BbSbR1ESf1XDtKLLtT7u4ojmvWCL33YsA5nLZBQfUiQ2mku28qC+i9mLWtqImROPwu61UYRG+zpSlRsmWdtovZ6T3ZMKBH/j3rOV1scwBXB8icSWfqXRu+0kXERdPN+XQlBXm2ipdXwhcmpShWFRxzFDQxNESsig7NkWNog5h6cm0iSI/sgp2H4n0uFY0iGAbNmRtMsGxYk3nTBFFzPfDj2OB32vqJelsvBiXLs4APceOpipleiktinTv0PVo41Vc+4m5sHsv197mY4B4VM4nMDxUJWprM9pXr2nUnL/gz4/x4c3gpwo/Oy/3s/BwrGkDbGdNlLqlSrR5a9Tiyb8HiGaHrmJs4NwQd7UWTxzuUCIdRtWvTig7se59+2P5VNSY5amHCzqa0McjbLgdcj9bIXiIWgbqDM2NvAZmDVG9LRYJetl5EeTIXKDI0Hk5L+QFYpyZNBZYS+qGFOxO2pDTk2OX3xesegxMbmcTlTN5dqm6AZ+WUqCG/Mn0Q0ROTLPtiJO/zGUV8pBOSv0gQp9535crOhmMk0z10LoKuXsPIz1u/MCs8mnmlFz+5allbW5RsFnrqCDtaZaeTgpCggugAp9S6a1GuzHaIREoQ4JeXihXzABix9VuHqicY8uCGa5PCmNrwxro/Ae2pndQXY6E+v5iMm3/nZKouMYCv5rgpq7CP4VPyXFLb50I+MfPeWlgmKd4frrcV5qilRxeXJ387nCXH3rLXCWN+uVrAPzzjKSW81CH2kFU9Vyt4uz30zd9ALaS6RGCprAEjpwGZnYJdeXbchRN+L/3WUcJraNN+Lg/psWBS/nMjSrXtvokNIbeTMrMxjiD68UPQpE/1Sty0RB5DYhGV8gXTVzeh2gFIFcx4UN3q0uPFcOeRkETQr2+ktME+I53AYe1BV3yd90boEz2lFr9ZuVPGWwduLVnHpgY9NpkkofNc81pRYyQp4YgHIEDIbE59Wt37QcmdxPSIDJAZWow6GWCfb8/DkjlBbMQVl/hLqHh3tuLhhgSdw5xPdMcUqlosBh5fzU5Rroyw15oqGybbKBrpPCGctN8tgvqJjNO/0zBJsyCt/sJxIQlumgDcuhZQVNFGRq7OPq/bO2ixY8xofi5YvQ3JwNsCaJQ4XvH21RAm1cxblCW95nKiBwVBBpHNH/gdcD4OxHlH6cQpXeGd+0OrGsrJcJjqaRDmLRKcH0TQccRmMzwDzyYJiLv21lojKQ81X67PjzqpV7QYB5eD8UA6sJnhEGGhgwdMrnY04fX3Ra4Tsen07eX062bsPp4o/AA4yOuYoSMxY3jZhvutyQlbjbUennG/azoIp7xwYIMPnQ4k1yxDBIlG7D7kr9EgtDP2Ae5BZl/G8ISD7lWkc5UYmkEYZVEzrleZWJnMCF2MtsIW98vvk4G2124KUF2adELJBS/QhS8RyMIdEDOmgYg57x+NM9/fl5TKmTmS53cM6pEgnZQJZqiAoqsFcUrExnVM79os3gZTGCu8HTOL2baKQqFTgp5NH8K0TFmWIfMsZnvbUjeADCr9IIYF2mqSSMAQo9EmjoXt98ybBhG7eiHHJ+qDyjmStjrjA15SgBA16WInENbS5JeeuUWyH9R5z8d6FHIJfa8MvUe2G8Bw+LxHEWRJFNNredgMrrfiDsGz6T1QDEZDtZz2LN7GExqhiZoMlEAY63RgI0zsPiLKdGfX6TX0B28i6SutwbTD8PRCd32764XQ/2iPWGdtypiIZE9ZHiYinCxH+Wau92NIDnMYKLZ6PAHK09qs4lfby6NBMnRFqmW1XIn3FCxBuq5GpHNMuTX8jFXnJQGWGm/kWTwbBfAJDuDHQDoCH7yWYR0PwNnKHs6q1QhR52GYLBM/O3wvxVL1RF7JwlHt7hm/jxg1PQROkUITVst3eW1vUA+w8bb5/vHHP7hbapxZp6jooaesBv1kFR66RK1TPW/V8Qs0+CtxqlEL0WpG2TaCaKSA10YtHdMWyUbdkKqukXnoyIVKBKyO0ucrUxIQSoFm0TL4FTek0z9tbuP8Ymr0FKEQrntF8LCYF7Ud8KV+3wyEvzFvNNEMLZkfzvX8Mmsr56gTfxJk+cNi7ET+gk8YZWZro9ChcUND7Hnkwckjqgb/UmhqrgwSWO18Cuzv0uVxBY3i0cIh6h2cDFBSjMp+OiBqOpI4cLKLDh0UaL8l0+kAsvZb/gjCDi0XFfzpoB9jZU5gXLRBdGmGUr9k7gWXkIB1KjsyZToQFAU7oCl6DwPvPY9vElXFJ9kIije6PIqwkjPmvbV5zhWU1wswvgGzCQ8iELKcIwgWdaIQsQb5ouWEcgtJ2RuV9uEy2NpsA+CQJUE46/cNMh/8qiL/dl71ogW7wV+HU1HNAvboDMZh33kqoE3ic2HJEdWn0Zq0t5bnGkayezc2jBAoloY2qa+3htqJO3ck1jUtmfao7ALN4rTXNLIbyxUAKPP5nj/aPymlgLB58bLuEa2kINSx0vnUULKMWQXRyNYTLK/7uqRiq4riEZS7CzZ3BMSzu6HNsohitPjKom3BXQEKadmQzbV6OvV/27JPgZosL5mz8qeC+cao0s3qcVArvORz3UnOZ6zFpzF45O/shAwpQHNqfWgqI+uTEuSqbu7etAVqM0AAHhRbCew8R/Nd5t0bEz+bH4zz0kayFA348N208eliyhHOcDUAKKWND91CmonvdULB3jk7stHc0rHxxfAfQTKEUtY2+uIDeernUQSxmRX7lOsgYcvOCs+y7q8VAUzjyg0fXMvNAmhIT06jjspEkNhwAK9fg8vxsw4AB6cu5W1UGo8RXSmT6IIirfXFswYgjoPtAUhbYMCfHJAFiPIgGETWXIl8FE+iqwCDD4pYAJmGRxQYADnP+l3U23h2wIzdU0NOnBYbAquZWNSOgAb7oK3Aok+eXLkVSRMhQS+9xC/Jz2KRCHh3KKmMDNMRxGx2gQ15DbAD6hCF5gdsO6pIuCw2NStcskktaBvLywACpdMcMkrIGxQQFTt5JB6vd0aKV6XNCWV2BwjNyXdrXicgn2LvDrzk1TYlmCo6WzQYm2lvFxKYneA3zfbvrXWsLwAvFxsDfXsMAjSgW4ZYsGC9uK6eNOdlJdr0EGpT8xN/HebnTGr7BzKkUr2n2puS44JjNKDsG2vQahqOSpry+eUBo6C6kHElXWe0RT2LZeAOpfoKl3eob9yTuu8A4aN04/C2nCnKHxCEgPzDUdq14DU5cTtXxBeWaEOhcW6QIvHB0XCVV6gpd5V8DQf5eL9cXphoha+FAyDmiaQ27Qa77sspTMWEM5+Sy/NCzOC7u2p65LBgSjxnZAiXCzMFzMFedzmmouvr5rP+iSFk2u9n7okGwTPsTemk1Yl8ELVozlh/P71jw8DqjfsD3YL7wM03fJ6BjqQ1rKvTSBdK9mCzjr9wjQxg198pxKbq4G2W+tsQVPprLQtYdv4IYUSFKTgI1Hn2xn1xuchotx2O+XTyNtu1lBW5Oa2CEoT5K3zK6iqSx/gEX1ElND24gAmjwr6pSE3FECYD0yXo7CT6d3v1aY/P90DLAYK+MYL1JYjwWA6++B4lOSUzkhghjCe8q4DBFv5aOoPRK8ioE6jTwdInmwugO0GWkmym9f8K9/u1dL0SgqOfLWlPS4VUz2vwAEJr7YcEHObIstBGWZnvHyG/Gfn9+TgIURsY0Q/N3N3ih7g7EvVLnQN8XwLOFGebYhZ1kD2rO+n4/fCETGTPX+3mzkvyrDiG2xFebwd8VGQ7QFP7ns8VSX+GkQN1c4bwMiFc2r0d+ZtmCRFhISgR9l2OF9NTcoSOYznmhtUYmfkHsxIwTzgUcoNmfbMw6jkielx13wSvK+nnoA4sfXdhZrGuXbElT3rfOxOrpaAYnyFXIE+inbCjg40EUNpr9LbYD9hizcfOORb1/LFvOINR43fxpNztKOyl2QLiCyWBDyEAj8nJFpWcVjP4K5rdLFR23MyHRRbzgKJy5eZNv24ynHgMoeqw+/qvpc+NCYv2NL6cjlVbm0cMcZaRuOcMPCcUDwtGMQHnq8z7V4xMog6gq5YBLMW6JuIZGoSuFnMLrT0UDvtXzWdDZ0gDv9o1G8ALTD9m2PLDXTHV05ssVEcu6zaGrnWWovJNV0K8k/oTuPjvx6Of2uY1kkD+dWv9X1zdWCYd8ykQUsq+GnbJcl1B+BSp8yOb7NP5ndiabNISCh6ttMk4YeApNrqJZ/Ob2Z0SC8c5I0NAUQY7Fl8ysxScGP21pEVDQ9qlGpJmHLUpq00BcqQekxKqKLSL6jqArHoNr1c5YzLyO4alhVwxsSp0F9XsIbScpZtKmXilNCOgDmAY55N7TqyrUz3/gokW2Cm8qW97P1034buecHyEa9ftrwcR6vRnKjelae7F6BLogN/zBajoxuobsXsQAUTml5E6rkli1LyFbZOh6gL+YNE0Zr6jApEkToFLzkAbWodBr9X8gor1qJcEyyXna4gRXjPKpYMbNKqccggShoqrEMTG+MsGoy4EVnl4/BkoGgb2pZqurc/s7XhOfZ2xpr12bc1x7L+xg14DwTTSzBsGHlG20RJmNQhcDNnB5Kq/fqY0JXmwq9GXtUfSvtRX6tOM+zrWMEasufiu3jlBU08B6OXL4Ya5d33lN/sr4U1QOejGPpXZubb5+O56ogGmCtcWvHGVF/Os9hj5+EEa4Uvq4HBllCnSE2gsy2/ixODy/kzWMdprsGZ/1YlEbUTOjBEavnT5kIDU2LfWp3+eTLoiQ1z2YD0/9VqYHW06EOU6KtcZ7iibtnG8sqcaIKIdr8R7EIcMmcjDxfdtcF0Yj0aws76joluAdX+rVTerAK58UO3ht3+mJPDmgMrbWTo0ajO1P3OUXdxZnRo0UQC+/AiUHBCmhHbbzBDlvG9NwR5QwIJ7QbMapc+o6haEpQ4j9AtA0EG+/Ut2HeVcAh5Zu756LwxzKe4dfaNRDLRHdobZCkmCPB4RasSPN3EoMmCA3UXQASsBODQgYKmdI4JK3dx9sTO15AECZDXuR9d/kWlorPK5F5TGzwj+dL8nrkU/ESht1K/1YX8pGbEqDnKFR73DbCy5UpEyTUR8nz2rxsPJWNiDvuut42NOzE0K3kujH/CsZuReRe5VTmuJKpr/TpNZ/477mxH03XVmnYjsb1qmvxNJMpkj+F31a4mCjdItKJQ4u/jGGorFtW08d85zSK6Y6TyWoW3RjGb77RyB790LTT5H3coB4ivIenJbvm+B2zrveno0MqJ2P62qYeRKgmH2LiInCFwNvg51qna3CxH1e74hyVg3OMKgbQVx8fPIWHlk2grxtgT8Ti4gJXsCEZ1Td6tX+/4j1eRGky+CU0dhJxNuleMKUzZiQncaqEOVWV9kxBHzQDQ3CAB3e2Z8faFurYHuIcVMF+Xba0JFEJpNNlA0wbhy4MpegWRd3SoQsT86NGdVxM6pE+Lpy95SjqoqtrKdc5wM5TiAy19oTzOGk5wvIGDVQG2CDgcAhtDqIpu5ySrjx6PjL6i9Tffk4LIwdsYh06Assieu6lX2ABR1aMscw9MV+GjmkWYWnz7VpG24Sf4Yw5EDHgrobwTK3WsfSpHbLpjhTpXwV+N+oqQFJWmIGwLDGmNmJ2s5IOcftrlVpWfTFMYUXQWukP6S8RtGJbakm4aiiWXa2aWCjFE58dBIr50n04CT+NoViPFDRdRgTT5biPcbKoOaQClpHOCdBPY4fzn1CgM4G1BIM4PRGwbNxGUzRSIA48GCX82M2TSvwjA8AUMcgshx644QYA2PAYMFINokpG22vKrLFd79fu8P8w2CvagZBWAGyIMWYJ8FsoGjM7J2T136iBz+o8b7EvMchvelZp26lZIexjs/jFKMsrXfXY5ffdB95fo4B2AT8cZkvfZdMr24ncLB1mZizrWs+nochmaB6JzcNvHMt6ciTnzO30xaNbCCpbc6I3pYczdRAsggeGroQol02yiqB6YjAhpRiBggxRf1IkCBJ4mVRzcKbqPI/1MuSEBpBYAJ9vVLLQT0KASBSZgNDXvgGBE4B9zTDWEQF9H5lAPQQGXAXcBK5Pn2oJjRIkLCmtADhDdbUOIf4UDhfKINpoihytjbdiY9nrGzeB/BSdPfze2Y5GmqccIHZox6IViVbVv4YW8sQVuWpEIKAV71sv59nz+0aNOcBpmkBknAqzGFwWO4qB4W0865Ljfz9IPUIYJcSkAoF52RJbAqeDAxG+G6zGq2Ui45uTUbc8MzLC1ne4QdHc+jLNUGgoMKKFD4Xc5tW+W+PiZ3BfxbFeUn4h3xLQJnnRn6naFlx64MVxjo/WZw5w1Zqdb+2MwRQd0RuFfec3/5r8Gup9h73OpKvbCfwFyuechfa2mNQZktb6louQ1RvklR9qrUk8GMIQ6QLnTJ/eHC9Lmf3nwmzoD3K74lIJ/Vn8PlGuMcpFZOqWL0QiMtbqRokrGbdS4QTX18u0eyhjUiW5wKvxWHPX84RslJ2ISTJUIH2BClkwquhc14nWFMaFYlqjxkCL+IenqfyXqqzZUJW1SvX37ET5vsSrvBr9wpkgTYGEze4ZmVTN5z1YgKLm1OzsnOpo0g8oQn9c/0dL9hwWhaAVucFq2j175LybK/tMYfsSpvqt9q62DUaqbCBm5TsgPDyZ+0C5QcTI3JxH5AAeoxST41c9d4W/CXJ5sF3RhMCs6+jTbqgaBs1TRWsNWDbnuI1s/CL/PiUtnB87dtQpZgf0ZnUXCuALFctD1JStgq5TyRcXbzgFV7NZ4zYIB6748ApiEj0fu6vZVVnfFJEgucXj3IR97RB0UPbDXRyfYfkjpOcbmB8mYcFFMgZkwVGcQ03wChFR7MFAITTdagQYmt//eGBTtem0l/X1+M+X8JTv6e0V9EBY8L7B5iPSAv2T4sbM1B8ZiMxJ0QbSKI7C03gpUEnstG1mRRKAeYO0UvdyHAirIzFeSe0xa3iXrxqbPr6CaoICwlSq2m8hrahAbnwr/fcdhaZ4TktefgrNg5gx7W4FGfkB1Y7twPpOfMsf5Xa37a3AUPYbn+qS9kxdcOAGH1DVZi4FWP9NWo94YEBN/bTwkPwVAB5bkNSsO4uuJtE6rYou+HlpvX1XVTuDGkyk++mdRpP7uJCz1Uhq8B7HQQwUuEfBIkWFBnLTL/xJt4OLJbeFPtnBV0MuI11DmHtWvoXe5pDMHInISGuUBq4DchejRK6vCzUNWqD8W4oZN6wbjF4Kl1fRiSEuebHtcXN9T8VX0A8CdSO6iO3DM6MYlHeDvCBUKoH3/b+FTmetCqoeS/aBrCjx+m3+R6kMeJNzGdumAm73ooLNQcOch61b9iooxmc/DiEeeR/PBXIWF1oZCodiZFhg1d7jnKNYLl5imggs1RyCIVRHmaPX5bujLtRy5edNIvK/cAvdpt/jc9eYMeMdwaYW3fyJoY4vsGCIQRD9btOoClHM04iJ3T79kgCJdOzUUNXUH9wxnVSPTj8rI+KD1Td/pXzNQKrw1oDnNU2acHiFSA7YLwTFfMrHHMiTHVL0G8gy0AceGWFZor6W4eIRGBHcdSogVbb7fF5eT0gUyA5ko4FvVp53Qb7iUEi5ZRvpQ+1k2tfdIgAY2WG6NzMnI514A01rusCNiZXqR1mSY7ngnWcilPYpCy6y9PKp4nsgCqOyAIAwGsSomhxm5sSTpAsZjU7VG+LrNXAj68OePat0RUcAnqdRBTg4RHe+3y1enYbOrgaEoo3zd56RLTWYr3R6VkL1ZB5BORPqaPkyGwF6yQoBC0Y9wwm0WHz35trwyU3ZwPM03VY5IUaZfSPCQLEG/mfAWdN7jW8mv2MRTVepn4d8laHDmQOPriYp+tm/o6+1dnZM/GH1c5Ek4Pd2+edxGgKSp4YbajrE7hvudL02JwLvQgYubz6aEKuXHiye/HkXAPOdrpU7lXW1Saux4bw7CEiuaAwUJopD4Z7hXTml7g6kRVqD/N9WyPuSyrAoOOaq70Ni45b33TQARPFMHRlEuhxA42nsFNdCv6v4H6wlzufgf2oIN0gEMc3NNQPmO5GUerC5Sx9gXo+uf1r0Gtu48g81AgkRVc7oM8Cnw//ck6VGQmBMEVdj1mHs9H3wNvZlFrTI1Xy6Bc3sur1OZPgwXPV6RK8wtu3SxHIzGOiMDdFddCghByGDL2V3zK1hETASKqJhC7FTtCwnllk7zz7Y/PWtDLdFytpFcfcifdDxMOL57IklR3Q/A/ZjkqnmoVo7Pm0zntA8WpbomAwrf99eSUGW0OhOuNY9/+rYBeu22wRzt5QI09uCbHpeun+U4MTAEOLKlO1OkQxM/pSifzCWYskm3TYwTWWfrKaHtpjXDNuweFGWrMpblBY7OnTZmlideHyJ5eo1egIk8NUgDn6L4p0+KmiQ6JLhzdkl/scdXWuzhzbe/8cVuU+zMEZYBQZYNRFSSOvRESSvb7yEEFhjmmbqH7E0ol+MX0L/0JQ/pwQDXhWI4P8uASnnuqyd3wA930WDXhcEYL7GSmzM/T1HIZnIfl1Ulsez+8P4oAp9C4X6KZBz6NyW54i37BFlFRqugbalBtMn+oeDg4qEgk+DWK/oVtM6Qzc2uTtxPZE71Hmr5oEwywoicv6xeZayYRlWJ5RZLbPxnj4karXOM37ItUbrdh5c+NqR3KACJ6LuLcl0GbTU0Rxt7gYgD29taxRSp6cetzj+DkGaYBeP5b64Kyr76wO8Pit6niuwgiZU91+cQ7W4T5jtuwWfGtRUhpHcBH4aeTS+aOt4Y4fQlMQKcmXFkxNiEL2ch5tLCHTkmuuuM0q2ywG+sdDDrUoapYhIBt+46UAnrMoG6CS8w3jQZbfuCsjnnFvDSp51AAodENTI0NhTt8exL3aVZyMl+rlovYCQaQ3Kk1lISNQBTlcVE/FEYnx3DIGKeOP8hDgF8/oFAxgcgjpZhL+hlNJwq/pkEQ9vK5zDFtWowca7oH7AfM25u5H1ppcJU3Sl9EBgnDCiaRTHNMjZe5OAayiu7rr2BkpDTVLTou72GAf8Jy0QEWAIEma7SLhVa+MiMWMF9coxMiwAzuRUkLkRgSENW4a0mcBuExHLPcnZjBVCmhFjf0BZnkPw2A67QVsliPOJrKMexGNlihTceyd7XNhSgdQs8ExmT6el/9jblnteerkRkNhQw5Q91MqejWB1DoEBY/XF3GE/SkUpIMstCL4COo3pIQ8d2VDt7YR5xsn35Dp2b3K5RyzYKDwJzBRX3SKMghRcaQWgLZDceImczJq6dno20l8ikfvED3pwtGVYiLJwXQE1NtrdtzyBzP33pkni2RgQONuiWkF1B4DE74gB+/Jk6aU97wggJGCRL8QRbG4KhuPpdLx2LcgQUPX2ddiTfo1TZA0lTkd0So2NqSXUPpZWtmtSD78+ZhGwUQlu3Q0EVS/zrx7/T6LrQ4V0ORopWJfx03GwZTLG+fx2sM5P6AFbYUW6sc28WuraYMroeJJF69GdU7DHHVQHNNlz/Nvi+K+/nfv/Jq96YP75CVZdQXiiwUWHelFFmjoR5tsWbnuIDPEByZL+SWMiVPdk4ndhNsA6a/+1B8hz2bLAizB9OxqVANtA6LMw0AWpESZE8t9XawEt9Q+Szf2E+xdw4e63Ivkn+xjB4nwX50F/aTVIs2DUR8qkdoTviOE9xb75VAkZvXT6Py5/NC1V1dL2spgp4ElyKtSAPhS1UTLqcpvmV8/2zb4cWoe5pbgw3Uavoqq3DkxJyK/2qTQ4AXZm6dsrnGLIhz7kLquk21IQdlTxEr8QfQM8Ipx3+JXEnIM6FUvzL5d+4+zalH6kh8Jm33sBiMNGr6D8pCCp0Nvt1McnZbNQ5fytrCrfk5okID16i+MYBtjjHjIRw6wrsGi8Z2ALIGrltSp+mfauwzv2gSxvhABSLYx59IbxwA33A5UoQDUVLEUBQsQgVsnckmd8mQnHpnVVObXRAjWniSSj8AYhARuA+B/8dtuJOA1viC6OdqMu588DUFsWEApz0+hPSIbNEnIE8DlGJcxAn3NF3YqYSwt872Ped50qAfd0hitgJPXDL2OVtPby8229f8V8kJyC5GP7gvFcAs3XKJgKuabRq4XKMh4pOJtUqz9WoOdZy9tOsTVuqbVYLBC5ACFYMzCByfDdXP1wPd/Eb1Y+gXswhjtczrEiYrDWrnXKAtXPpxL5qaWWlDYtx81oq3ul/hlCGN6OmjbbAkwkt1z3JwuV3PdHILVfXEKCavNrrZoVIG42b4vp3e1F+P0pBKrXLX4VWq82zbMdWceJjSVAvoFrBIIHcSdATw4o37TSPRA+pkyo7IlAQgPOmAr9rSjVeNj7bKcug+djwgQzPqZ8dU5wnRG4iS5ELgVYpWc51N5M/DsFFkcr84V5Q9h53rK15HMf+wj7rYuOnxTfRF2lM0BoIweZfoo+0LZfiTQJQUmriNKaNUgEQsBPFP9z+45XCDdUOIU7OSvXzOM7LL0NdXSqZLQQnig+5tlaVK8pzQ69Vosj2QlqZiFCN45sTwpXMGXAh2MNr9KwsKCYc4f/Fzt4/cVQ9vOjMsgbif6498ua+kWp34dx1W+KnzN0FqfIKJt3bM6M4xigDCwZjotumECTRUnQZrjifUQSeRkxWVeP+A9Bwsrbo+/afJNF/Zraap4d5Eh3cARylfonnwGgQz7pGEXhctqL+7FhYX2WuFGnP3TeO3vu4hXyhChWGxswX7hnbQw+DJyWJVgJrFQYZhmAib+Fuj2WOuVeW7MBARlbSFgqbmRLCY+pAODkd7WitTpacehtCOMj4cbpd1ii/i/KevgTOBWky5ktNJl6faS1fyA+9c/B9ZTHVlxKcqclxp3NYeXLZR07DO9SLqzToxDfAJf6+G+jY+beObd+QxFYQ5zOXDyXvbHk9YBfrmHSHj1wjt43KqBBQI5Dl3ufs8TM+SjxsIxVeSTMos13qk3OfdQDZOILaLKlASY/v8IZzSJ5xSLHQXj4eNeIgA4Ff389PMsj/1iGbzqIA3W79pLtU32FdtwHRyIjCq/se5/BcrwTokZ49wHpbogNWw6xWFZkDXkSqA5ykoK+fGdH7G/Dei3wQy9XR9ps7+xdRVinBWxwMF8Vk4qJmKJJAj7ziCgYOgSkyjVEh82DhQv/Ygk56vzJ2dekvFpA7DKXJuk9p7fV1jDSNJotPXlVRwVFG+24BOQFZydQuYqIBNIr9XYNdug3tQ6pwe7N7F7T4/OG0WKkjpDdc8UpRm5Ij8vJ1ygtl/mLghqNe7JmkW2CVCkm1vsHA2Vm8r9b3twnqu4DHxouObHEyCLU5Z2bhmUcmuxVD7z+nzxSnzgzz7UemfDP/cPY0RhlrybUQjgSLeIFNAtb9LIJaRJcSzacMtKsD7sXsbq7FIqaoCDSRSTg+CedeKlHK6p4/8DfDHLQNIoWVDvWALe/XonrqNm1aw+VJepYiIFYZddTfUPp0FXSmHBn7OWI5SP+L/DQmLbclgzRUZ9NAqo/EhmYf1UPJtOI1p2N6onr7WJRPyuM9JdfA6t2xxDdBFBOopQwn5er8sFp6rMgBSotH1kJNJlBUI8ayv2k1Ts7PwC8WogEXQGFr+ugA8n1PQszM8/4nnc8Y1c1ue5MK3E/fytjdhyKOirmHbib28MjpurUQHYdAgVmzbbn7nZPTcTkiyhslyD0vfd/DE0Z4curMWENqKtk3EV3HO9IDFk4yAKLRWHiMCh14OKg4iXlWl4Xhwbl0WgGJi4ztbfxw6LbHpYd/MAm6EJiHg2+dmcW0SCR53NP/AWTAjuJvIlbGAS1nlz/yibIMRTH8Cb9A6jQJEpEuMfRTWLys+L0SMjEKxt6gTXfVPa1cRXHz22ZBvFiOIPDsll8mI/Bseg2UIssDsjE5bXqIxmF3pZBoPXk/M313bRA0/Vw9XATywiU+1MxQZJ3nvDvRjJNpFA5K5AsaQsv2NQcwRnIKYRX02P12k3NZ7YHZZRIAIbjzLQQ77d66MV8zpFCgvsEq1ZvpOtdpx6P2bWV2EfASYut2bspR8g9GSFSwQOBZrVI6HV+EEJ64FOFsEP8KfgZk1X+lYpGhNxyFvrWAMq+8HXIpaUhRodPm1ewcYGxeWvBcipOotGGm97yVJz7qfQWrsgnKAoLnDeW3YObculxlZJI/Zw97dBorNgz6L+qxJOVpOOiU8PjnAwiRwbNEpJ485Yd3sDR8Z1xlUdv+zqoaEnK8BaGPbPxe5XAp3PZqIhITQwrw7xITgR5E1gxkVjOjME/8nZd2NTzgE/oWzITPbTt2PAHplGkJ0XAzpldoAVASv35H03J5p6Gk30MXm/vqYTsYL84uXug0VjWQE4yt74oJ2SGQkLnqZkTpA4DAMe1dlE1zL9yPB1bcNMUzZvCw2XFe/N1tgegaUFbV8Zi4n4fj4VWb3G0W+4z7LwKWSOAjubE0KrvceP5cmyBRtml3TNFLfvr9rMBHEQi+HdiKIjVHGURus+EgJwZcWUI/DUTzt1y4PPfqY4IFoPjsfQixcMCnPnoAJi1WLfY/fKEkWq33yqeZIzlJT9Bk1fccGFKLxnKr5SAV3dgqUiqpZLzakDiPfrB0GKBYd5BPBc/DDTPZUOLIU6Iw8gT84kw7yUPBNaBOKeS62KAAszwx6+t8qeLazIFzZJ110w4TUGmyhtwFYIY9zbEsi17glYmxyQHP9TyuP82TgEfWpnNnPW7MyvWfvgCUyE9tY2sRt5mgpwJ69xlEiWOPqa/FWY1NuDFFuIrxART3GcvgjWkGVJqlwnp6e09gT/4/lIngfZA0Faa2dEIT7A20raFkMhUFJcHpcZn3O4Bs3O5hY3IBAcoG2oxRtCra5UAI2kWkIMOnSuq3iboiNIWfo8F1D6A4UzrfJxlUAPB9VA25CIPP3tFMjz5YBoDUDh/8AvUrMsuxjHp6AqkxQcHeRsxUFDea7nwa2ooaAPPfitwCih6DaRuGU5OstF+3D6lhUhFexglrEaYZ3Q1PeEZ0PpPgsQTKrsl7rPeHw2LtmqtqtEd60dSSJfiellQWZfQTouWIJAUR10/kd7/3OyrQ9pq4ILyybkyJC88GCC0pf4MxSnjskLv3/WMYM8dJ2P52+LteM+7FiM/TBD1DnuQXd7hoC9bq6Gy4sDbtTSs2T/zwfH8+o90PsfvVEV2ifEEdM8uQ9WMg0WTffUn/HQBYWxDUisj3JyXysM7OqCHIC1M2OsMj+oIfPkBkraLSZ3wMkt2VE6V3T3wPYolPnYFXOzV+GCLSl1zcbtWXdD+brY0IEDbXGTO6DgOro6EYTfRUkMj3bufgv3Fiz91KIBqh0NogulAwgrHRXR1jeu/tvWBKTsUJ5WYaOosBsKxknpezgba5HhlplIrOCJ525Q8jBsubCNcAQPsBEQLmEEDPn+aDcwKQFPVJgAu9gQLRidkVYOffh6KAoFRnAGRDheECNQtxLFoMMb3gFMGNoAa+oSSxdsuhqDj6YOcFdNRyowBt4GgMcqaUW6kvj4FVYURIowUb74JG29EKfzMBgl/q8+NvVuwdU7iLu9sJHwNBK+9bAA1gpr1dlAfB7viSAEXgcQEuAAQCJwlj/BWgAZvkBIIRHVgwPDMFbGdt//hfls1nxBTlGhgrS+iKz1/DIUASCSspQibmvoNlsHjiO4MAPGzrN0Mqqea+32TKm+zmczSEvVOKO8kw4ytLdZXHQzuKILy2u0Y7qEMUag+jH6iCowf0s7J9vseObfa0K4+MyhDm/JO5JVc/B5gn9SM3zUxvucxUNWcAaSxZmnV4nuJvS1aTstqFd/EiCJYK2vEoFiexTGEYLYVcAUzEOyKcNrjEImYWO0RHd2mbL/8n7UI0gJJL8cfGOGN9LetRFNonV3r65A471XrhcvdHt3tzndYdbLedEmu/i864nxkBMVo7OiXMfHJgwLaFSVaflumg1RBuZrJH78uonv6OXYywf8rNLNqT1B/lBlTZ7DgAT4n+cmwt76d61H0h2wcClrovqZmASv77lq+9Lo3q3bcjmfyWbSOB47nJlgaEfObMOqrAT3/w+vH1/PLBlvGwvRL7f+HZheio2xijmP99OEgteJqv//LxLtHbbuZNQoyHNGG6iMiid8lzZ7eugWNkD3f0SKZT1Bc//z3tAiFzIhR5Ia17G2xgeQA7Nf8cT9pIyKEn+TqfgCIwfcfYygmXtrtTwO3J9s2GgAlEpFypBGSKUJ5Ugzv/XJv8rDPdHlYgiy28e6VwosZ4o7dlQhf7y5sM6ijM/iX+BzHlpvOco/JOM48UZnUsKaLicz8Ikr2mq/fAj86ZsoH3ZxFpLf/DBXVes25Gz/QCWPgTbxuLnsSFmgKGSklCEWJhQN0xb0Fbktk3HzDLujx1hsyZRtfUxVoQYQnX8nWlNRpIzKxrJnsI5NilhUKp9kgy5QzTN8oT7zstnTZCQe33lhcn5EoCVWzVj0aBnOwXMYjES341XNOV27ocG4pXO+raAX2U1NFwRbb9udEazVwgDbUgZcRZWqCUiZCfsNnA0QNKSJW6Ef30nCIH85OaXkmQp9YZjChXVPvoHVpgRcnFNRdnOuzgfGY1wTd8sWMU/E//s5/gtHJXAJ56iq5Y/x0a4VB7ZCHSCWVlFbUvI03zrPdywlRFTuTBs77p2sptJ4Pj3FrOMfUpVxr8DqSu3jHo7L4bV3CKsY29Btbq5kGg1K7q+zEhm/z3TKOueCELkTkwbszMvN9d7i7zRFCJQJjTL3CdTxXElgJw+ahp+wFLiLnTN+WuLRz4zqc4GYodupKjwtkoCwxs5Q8qRGQDDg29zoBGZBc283KcvWSqdRorjv+MVnhQGS8sSm+sGyh9vtLBHTG5Yj950hE+IuOf93gSFoMAoBIinfhqS0QphiTFzfm/qOrz+RoLY6jPDSM9TiI4uHWUQqBb8+sFsRTgdVieyi8o6i6Q+LXbZB1mZtksk0dIZxG/3FFBgjFpofLQVp6xbW6TfwPrll8I0WCzOMuurxne/PX19gVeUGzP+hTe3o5hYb+JW3jFxN/qSqI5YXE6A8NDEz9lgqoE1XJ94kW3j36SHiIXIJQ8wGpFJshzZYzM8caCSCAobdJ7zN4IgrdXLX3btAqGnFnxa1ZTYu+qYzuOvhY0mcG61uylHSH8UriBiGb+EhSIvdZc8LiaGQIf440yRA0pJtA7FJo9IHPX1D16wwiwG+IrmfYoYefTeAVxejLPwc+QqzvKpFs4J9Ss08wO6sl9WxwLe3Bwx5zch890HpLbId6pHs9taeMu+kyub3VhrYJskWQsQAdG4URuytJraCxCLVWedHC1NGOGOc67Pac3nfCP8YGR4m5CLyxnAqM/Dr0Ex5NDN+KJxZr00bM4ie84rSqvfdYTRt6AV5PTdnfawn3j9sf1nIq+vP1vpizYR3mnEX0C7j5SFe/3dqIgR5eVS4tTbeZsPTpU6fwSF3eWocPa/P9TCcQcVRhGL8TTV5eDNowIy4JSphALE5rQjryYrXkdySKdk75LkByRavVspEs09JzrT1tGR7cY8mE5QarMp8KEy26DY+azIuwsjuR804Ii1PmmW28TUkKkjodi6oCw6gJYogf/o3ILquZN+RzBv1XihoB987mEK3Hu8vZOKvo9xc0QIeFWtS0kvwADqsrken2JP5JqovjeKHPFS1SNAitnvLcVmHhGLk9JnSM8cqN6tvDpR7fiTtyFUykPDTBwR5tPPeosP9BYhQLdQYEsr1ltuiMYpJTZ1ZDk3w0CscvSNshvfsaV4b6kIuEIFVnBEJuH1xR6rTOaxUPnYSxt3FuAE3nGKn4S0l/DDCun8GomzuSpcyIM2EwDDQTFEWKLPw5aHmkoROUJ0+Sqaht3N6PH8tqFwluM/HLRbtxm2/i6LLf1JMkx1fFAXj+1sPK0lWIGYZysgubOMC5VdESlAoJU3gD61w2nXlo0aOVd6jEvOcQFwBP4mxQbvvjP1bFRWA8JtToljyStyklBCkqCHvSPRSTC9CSI+s8w/HXHcor2QvXy5eu8f9OqKe1yr4ijQhPwb+tQo8IK6K2if4qWrLHWRFo1Gexumkl6LriAy6e195GLIIiR9Ftxj8ROx+QvbLvwtf3gR3ZEpjZYNbh9PXVhqrRDczQ6DtPNoIfmnD7KCvLXzsHahfIp8E0Dly5b8yn6Q2PN8HpTkVjybprv4f9Zsyl6bVugy2HhAH0GUrd7Wb+JiK3qWzPLKwAP4+jIc8x1Z36zizjiXUgoDK2XOGV83RtSZW3PWXerqiY9iYrSsVKrqIuU3YhcLLfzIPW3a6ROALSl1AR8dQuFymLBmFhRdkNk+EfJWJgW5dblhj+CempngWL+mhg4o6CPzMltbQ4pyzYGaOMTIL1+vcUrvWefKvx/STOYoJtgRCffnLnafFEuG7hIMd7sWojnf+sdUVF/oAH0LSJvPEYsBnGvkH93ENnc3W/42t86hKqlBVQNaqKz9IC9ytcfl9FdWtMFEdNE1ySiW70jhl9QZMeEWbceSQ5UwbkpF1KytETFXRg/H40Crw7WkxlBlxfygNdr9Kuiff49S9HIhm27UAZNOH/uQWL2YifaYM6N4lvivdLW3axeJA9ZUwfIIT5Y/3D0RMjmK0WyL15I7pay8DpPEOLecWPrSsG+xQ9yUAZtApV+xyNc0xH37Xvlz5VUX+rhUcN8G4PfMt/cP5pp6/RE5Tq0K9WUfHf8XtviQaseyXQeKWzs+VqrKfNfeHKBhUZPqHVaz3D/cNp9btWwoGiMw7mGdxWGkhmLj2Q85bQ2iyEvZJl4ZBReb9SKmFV5bDGWJCzHV1OC5GKV6ebX4LISySedewWquvSpkLVeD5URPzGMhb3/g9GfgfxW7nHMV7pMtDZ47JRi0gJz3WlYMIFRX2tDczo7zpUsOCmAWtGX9sCVpaRwjfIeZG8Uttw3R0P8MRKzcj5q7S4tKeDCw+9YrAHAwa6l/Rb63oFj55eWmU28RFiC6iF01h+QlPujLnko7b84xy3pk5nQ8nKQnEF/sLBdwj3AWT4lFzxMVEe1RqyKzxSnGB6bw0o1tOOERk/17PZ3bOBH8wIakuY31dytdr/bdko6Y7KkjhZIhnfYxsvWia1w5ZV3O8q4EAow0WVI0JoIZdbEfhtHUfCyuMeJeartNgb1banOQ2ZqpF8Gc3w/OMW+2uzWhA++ZRxV191WmsCYsTGqy0vvvLjMqwpgW8zE57SETdyyvh6Te6cZ62rDySfmvwHOL2kj9rjTRMvUqoTsmWYE6DcpGbaxfmpbpeIRhcvcSQ6zz4DnHRisRsbap2C4c3RL03lzAFUQ4K1KuRishUKviktVMUrbE96XWeiOPJi95Zg59EJ+O6BHrqR2n+X8sNea9q4UX4mxPcm8MbKubV3zaFXwB0VnXal8m71Z4JZJnkz903WDyKPmFPcFM241G/tjxmhdb+vMEn+Sr1BRRG2Rtk/8ed0g4RZYmWNH22ZmTCd3xwm5qA2reA7gY5BYu7FDJ0MjfHlagE8vJPiHN53R3S2ScRLuEcqBt3VuIlKV8DmrgZu1w7DiagUxxct8X8EaM1fccw1UY6GnK3RgYrBHp6dY3PNra1u0l6F07wdIIXubqsxC6lyf16VLmIOhHN0FrgKNUto1IievdvvgqQ3CRgnrWOYYC2Dr+czP8IMI3sfWyE2gKGqqQW+ZIYM9wf3yftaf0zD3xC3mhTq/wbmT5xNN6APgoim2+4cNxDXBHEQLPu7ex9xZDjzTKqkPTzVsC8RNVibKpEIoropz29uyW/Aw/WTT0Fq+tNBtV6CblyHVeZUB8qRlLcB9oYEzClk4zAREgA0gA9fTq70Rwu6lnJvaYCyXdiZNws5HK8nyPPkiIqDnmKFf+axvQF9H2ZzfnZftolccU29OFGWsY2TXQf4IxZe8vghmtBbHKQMy716uWJ+sFcd0hA6CWdPhamWsByuPAM7OmLJcr+33jehHBoDAMz99fBImEsTC1FOgC4fG0nSMEFelonfFiw69BW34zfNYQD2f993iJ1wGyHCluaWr1uO/b/OS9XkBGfP21rgqZo1iFrXLIMxj7o+0bk794eFPBWKcRmN5HHfgc9dUt9ICC62ihHlPdQK8DLgOhNShhiq8M0JSytBwKWs6S90I4wEgYnyiKj4RhLHcbI2nL9EmkaiOzCFI0aC2luUCRdxphgj8c2FxEdJoVMhK5pUGpc+f7/6DzoSNS0P58T7cufg+eKDvb0Yr1nsa5I0H77y4ePGOQOLan1f0Ac9qxYkTkh/9DFCdA3XeVstdlNUTbhMZI83TGCkU4E7qeBc+zdb40+lPj9eYe/947SigDz5ztXbVJ1F2IsPiba93yFoff8O+DOZcLPU+X1iXJ80kxcOMkurCUfow09AWWI2JPA6FvkNCAmgcPorzr832n+PoInFrCXh0ZOV2tJbQoq4THcJJD8z7fyZuWVfNBoU6vACpqkJaTAMdBTOLHzJJySdkeM9boZcvgLux3bS65IWr/Q8ZZBZU7UqA5yN7sz6h8DsPAcldg/dpYnvwc4biq5skWoJSrYA68E4J9QWqHgqwXbakb5FcpCMHh2v2MI68YjGob+aQB3i1AIeEAobOJ5jRUhoNUxE/IqencQME0S0ByoL9ocSS9hR15nJGbxKAIuNhGMn25s52EMNsOaNQJioiXUcHXWpALGkHtGLiJkV3AAjih8uHzAj9BV3oGiGZq7IwS1dZJplBoartunzleqqWcgwk288FO3ve0pM/lMUZzPZbtc2gtD/GVXSkay6+aYA0Ucc51BiqhS16agrBgMCEhl8eAelbf53keAJIYjyFxhK2chTp3JgQuqUCvZOpoCFd6GcDDSfhOm6R0MQp926Ev6ydTTytgY46QkvCcQtKbKZgCEOc7R8t7jeDfkXy2NyTGxULFWUr5zF/wzXXCkfiw2sUIpkbZa+EM1XpEidDDRFf6spYu3/kxaq9qCrrgkNLM6LTsqp0OLNhER2Pp1D/e18UUo6afgOzPF9a2mp2N9ftZXDpfnbTj599uTALJaH3yL+aP/NxjzzBII3xGdCEut+xrc4QMWyQmeoMVLiLuW6OSX67YHC9iBltR4OoTuu30HMWYymHD9ETDedBq9Wrmzpgp19rRr+0/4npN7HIbT3AmuJsj/qitkKQzCPezNu+lC44aFBTf4k3/0IocsUfVVqC6ZAOt8nj+XWYfK0XU6J0xPvi5vIOmiMUZTz5D/Xw7e+05BKKr/dGZ8euMhhWhn2ZOSgH4zgo0Jp2iaogDed28tJ2Ehe30dejMJHW6o5NWDhjRz4TDCItvLcAV0U/pptESwvN4TCvDTRTy7mwC0EwyYXm1pvuo4qd4sd05z2ObStGMuyMBka10oj+7fYLplk08VhrA86/CXJjkHmEK2yOXWr0uYPhvFUdvIQ0S33hVHZ9UVJdB2WM6K8TJQBjIAgf7Z7TxME5G05NuZL9/22++jqx5I/UcpVl2ojoRGtRbqLueVmXynlxISUTBXEDLko1cgU8CTxzfZUG0a8Z06qBmlnwdXE8Hs7DxM7k+FCIaHVT+cJ7XgWRm1gJF1Qmx0N1xNyzKkK9FErA2cNVZUUIy7Jt0hv2k0A0rADk0DFT5K7mxA41CXa7kJXqTE1Z3sz94fCWLkz8qSXKecd/MC/9eoO/CTj+7sYUVhBfUd+uSrG9nKtVjFXpe3N7SnHEZVbM7vIHlJoYfTmXb1HW+pqbG2Tf1JH4xdIorSuRP8wWt3ou+R30Mis7ZkMsfHcET/18KQHICKmxUIkoW8aDlAvEMqz+jDpefCZzddMkPf731KgwL1GSJ1HG7ZBfW13mrYEri+qU5mPTSUKgN7nClCX3myvZfMQXH2XbjzgX2UWc892D70kk4IRV56pPAmroLToQMuTHpvMddF10IrabOWQQauLy/4NCCAMlFxIrqnI/pkdUP3HrmxYN/1I/RWn/BMADC2L35DnlBOtMOVTCcFPgdcfIhf8LMM3tiguEVekXOk3VMG3FbCuaVFkXEMtViEizHahbPULVWFwTJISxUrHkF3Igr9uMTEnwr23vsNdWDqZYiPLdokEnnzJEFUattBRzxnd9p4cQtnYX7mfZMYP1JAM8QuVpUG3loWXUHM7zIbbAfrVlMJUYG6Vl4CALroD+xpYg5is3z7TbxlWDgv3MAD4wYISvys1eBveG78YFg4eooxeyuqwfeuAoopiZerKS1Ti4Pxb9og+zP/14eXL2n+WKNPo69Do2Pv6mG5Jw27UEBT3O2KnrzwXo0fma5L+cHZqBcrAGacz/P5TCvMDLd/LAJmoDZONNPFSuqbWGNWkLDo8lyTc+9lFYjnBCc64npa8aEgC/yF4NNqFtoP2PDb8+nsWlLcnP87vO5jYs1smEg1Ip90DN6TzsWBOB4f74Dw2Cmw9Z5cQGjFjm0bs/vudwfmyIFAVrcio52ZNSM+izUjWSChzbWpv8vwyWt7r3ubz94wtx/QxrAR2WXNirk79xgxmNQQr0Zg5wzkoXNOkE8KhIdUj2LWZjENSwUpjlKM2BUKCh4v89JdBQu8qk2j5HldnNzCaNM0PbcmEd1ixKjLHU6ObBResVXeRTZeIGEAFouS3XidGwuPCGKztbC8bKWPuIkMiDL6sgg2D13+JW0NmsngnqfyqCakCDk5uxlC8/CEhNURvOvbRhQs0so56kKDgK3NW7NTUCZTcyajYXVs9ul64kbtQBkurGNliFt3D4x8SKIzG6T1aqLLSECp5K4FHal9SZ0NlWlennsZCiZneWf4Fz3KmigsX9hFqBqUMCkAcaIzI8GiY9ErlJTRyztn9jaonPyXyhxZ6EO2B4OjM4KuZG6dbv7oEoceWDMavb25Bwtp0qpEI9+gpJUwVAL5fl/Q/46wn2i33iZd80XC/CoJXchpbdlLwq5tVm8Udvdcdf/Zfbp0vJA/qzAgMpB+F9ord3OT9Y3ICt0PP5IlRepGLf+G3KzMhbWeRAtdNhzWHCRYmNKZcDE9UHK3Q8pgEdK29n3txdaM7AvFaxECsopHRlK0VBYMiz6AejLAsOAFLaqdzX1h4MzNveyYyRUIRqVFF145WkfZT9rlACooS7K/hp2KuMjeLhI6QcCyW9qTuIt0kHGlBi7u0vqb0rFyG7s6nIBZe8l1ot050N9FW1yb4RkltG2SkbKBAr/1jBYevpD53REZtdHHs8bpt0nNt+XKDwU2CGKuSB5og3EenLRsL+J6fYSGvSzwiVM8tT7eqJbBLGD8XrlPxUYiVRuJbD5KpgC1h+WbSYATGiQOVBCE+cfxXnPspXELaAWlkTGXnWged16zQNLUc1FfaVsOws1PKisZDyMmIJucyXrICTLp1eK7hE+2XA5t4b3qeTEIFYrA75L6OBQaUJYZln3rNy+XdNdKuvrfajwl7gqPYTmrXvWizc6gpvYu0HI7UMZajN7PGtSPaA+VJrqbY8q7dl11aiYA5vx8gHZKkgn8C+C1h8s3ttfzsVBl+0VH3qe4Lci4Xg+YTIoop0aFwF2br9a6QvdIt23GxGjY6/4m8geNAQwUi5jTppGDSc4UhdOvWjkbXbXNVLl8AdJ1qtrdA4/bqZ8ZWJCVpejre6V3MsIFIqr6RwGlYthN5XI75Tx92ENx+zdW7K/5jqgTHpw70m6woxg1N1n+gf8LKif0BaafEW7UANgkz4zqLkZiSekacNNw9B36yi8XsxuFfIieXOdfRN6heBuRuw/GvHAyb1NQ/7sHWSEBIrDVtQk39PmZnAc9HZTNipR+WqPBxxOIR/jTaxxszs90yX7nnKtruq+po3N8wXjSU3ZPBhMW3niwY3Bg2ue0F9v/g7i1KOxSB588vY1RCRWmbUwBDKfU8yZcz2ILhkJd7ilJON+UFq3izzmNxQuI/3vFVb2zBfsdD7Kz6Qm/UT0xOEnMb5WrJDhKKrgYhfdmkAvEu9oXZzArn1mZtaYuxYdFWHBB0TRkyF3I+QUqfYdZbkghzf6Dn66pjaDmbgBbAYjdervKAwZabimySK1HPnehZGA+drtOBjo4cZCQ5xL7LCFKD+WqplFYLu/1gBjh8E7l/rOXueOt4GaAweUzva+QpqeCqVVlFi/e1egYDHpu0VWbZlOM8imfgnXDLO/DKfR0lx5izma21CXQimTLLMS/bzURQwd+yFlVTFVOuWRNwgH6fR1obal4iEM6exA3swi08NGme0wNUwAP07mapTV0RYmKLTOyjbrFJLuwZtZOpdShGToW8rGfs0MamZS+wdTPWXAtrn1pBxFwgy3VOIagQiBjhXr0v5bqZQX8RnTiUNpP5rHIlTOxsA2mRbOE1QXWiuol9uxytqXNd0ML2hS+MfdXUsbpPRE+YJZf+8QwYPBVnKvzK7YUJU9sMo7z0WjgiIJKy9ky5HWwJAClnrX4hMnQVSG/IH1jBv3TKNTR8wjOPovX4qxzVT1pGB9jTz7NsNrayiuoyNp7l4ySCdiUIQYEtMhXTT/A5RqH1xVsUGF5SekIseMs2l/ejoqGs/Z4CPuVb/MjdS90Me0NDvFTVlYxAogZsh8Pd3FXp/1LoXZFbGii2/O2x2Oo3/NDe4gXSRmIWlUxx+cMliJizb0fAX8DJd5kqwGGa3u33C9CShqzxj84YFxOlsku+tjZE09gLCWbsG6bRCS3Hjnp+XsyNMgbBuSmXymSCy63n65ChRZzNUYqke1Zv81jwNCoLefZU6RQrtrodExAIIf2AYLoXJ+0aNfp2r/2QY20P7ixAwk09UoH7AX5qBOLLr+XodAS7XgfWWb6aaKbapFLvxUUcswnUq2Ch8tAVvAWFaVZPq/tBbv6I5B7zUainuYOkKmIwvxOfHTldbYPPoQ7P8tb1ODVQMgWanVuhEFXAxMQEVUa7evZJiiDLrnRjAb9lXlDpIQAGOLCuS9fhSAITCdBFOXzkYQoydRbAQu9tYJ+z+Wn2xeaRvOGSEiXXxaRd9lDfC9U+0cjtjtTQ+GJedetzCs8IJyTxEux4i6TYc/D992amPfeRg5ik4aI8wZzGP3NfuJxATNWNG/d6lAz65KiVBB/7Ru9z7LBzoQ3lt8pigQ2u+JhYJnvFIy1q8tku87D1Bl6stPuZQu5zix5gtHm8s8z7r3Jup8vWHz1W6V9iPUtbFqVVzNlKLQ0gfYQkIYhLaezUZGVJ/YTCxEyNa+lG4fsRYbnwKQ8Tx9DUiZBo7j3/1syxp8Yy+p8pWqjfyxreWMUcipn4DsM5JyvWp64vvuXTYgTLWOER1A0j/EsMkNBWtS/fvzUFYzftLjOMZsw9AVHA2u1F5GpvepRUMUXmvSNVKf4GCZmGJRx85JCxWa1tsj8RktmOge4QC/udNvUUudjKafCRtLUoRoVzcYW5lFNkR//FHNxb1flFYb/41VECoLX/KHFiBcScMP8KEKgW4yraxfvGSclz2SJ0rAsWmJhfWnuG7/dN0aOxn5HM/NGdZKzrGj4dqkbk3GaymwGSl1gpDG/+9IRRuD28/exwAYNr6VsEMftJYmnsMb4VOt0kq0ZEGPBQ9tzMxxR1ZvSBa3W7vdntoQDfTqpIjlO5nza6LF1TtBXnYf6bmKnNgTCDoZOBPmuFqYDvEPrRJDqd5LkN2CXH/3cY52h0gwSmHGsXF79Vg0Shqiish6h+PffiJvineyrG693vrjLVQ+tS6rQ6RlSU0YCVSCK/xqdFs/insA02OHo1s7wt7I7UDTTtNFzjK31kegjMQgwzVB90Xlpeja/pnryWg0d0zl8ZvUFLtcEdeseWzwOQWH3COxoA8ANNcQHPcCbXKAI2SNHW7QkPLl47C7QQyl9ZaLhNnnEJa5AB0fm4RXr/uvugEXj7zDiMBed9UugaD9feVihuHJjA6jk04xnYEQDwjpMyhQRz1UtQJMifg9ArRK8m41mZPktt1Ufb4tgcsHONz/QFYqLQa8Vgpy9E2m4wqueSYnDfn/O5hM9ruKjjOCPWMx8YFRcYrI3TPlI9zUnO7mpKfImP9MYLB0+rM/QbTdo5m+UGjpx8ME/LXXUrNC/mf7tlHM41d/nNqzIWej+ocqIz3NsnwYetg58JA9iCBQQgU73mtGmBLFJkv5IKvdVueWcSD3VeY2WKhzss+QJEp//1CwxcgQDG449Ydr0BSBh6X+BluB9OKefW34g0s1d+tYn8SCH68Hp6LYZMww8R1N5Fb0a5zboKXXE91PWyuAvAD1y34vT7i0TkPaF3eVRjKUq+b0066SSOkUs1zaWcdTsuSn4Bkeojqo4YIfh5iCVq/JtYai5p9xatZE8AAdwfoqcmQ/LS+3bBsbDf5JpG6Nm5Pki9G6jMVGCz0K7qYYT1HOrd3KSoP04v6L3UzunDvKRw9wBLuxN5hYNxjs5xmKhVhCmrrMxadbn2Zi9QY08xEWTNcY9qeJG770RDyTMCHyAqd/j8z/JZL3Pmw0rzjbweFgnhCSHPLes1mxDHlt9yEn+J7p4jMzdSMFe0LFLpXMtX7mWmniS9qh1eouyBstlayakoG7Hv9PjKbzseQ7P5Y9XQX9cv8s6s/jIMXyzcOFg6CA3dDZCeXIhKzStTn7hjxhhKFku8TZmprWZZbCpo1TbYAJNA1oVwydyUboPxMV5TvKV5vW7Ux/pxEN8cRdxRRGG6VoDIlx2ocFYIU5R1nBF37ZLacxNFkrzwyBuw4Fg9Pux3f8TZXk8YS4yoBRXgxwmGhyl7jE032c+/QKvs5GjevFwPdwLKLJpuFri2lxHIgtrtRlw1rLVyIMQ7GsZKZ4o5g5c5ENTZZppIuCwo0Hz/YxANlt7MJrnVoZuVY/6bAA/nfP1NRy91keMg0f+zaEDskXxNR/vVVT5n3y9Pqb+RmG7nFPzuMo6YlrCQ91tXYR1q43o9qzV2Ax4sfi+85pUd4xwVY+7Qmev4RMqjX0n/7X/1W0NR0jUJZyVfffjir0cP71BMnJMH7NGJaVEK8X8njW2yw5MfaCmW1RD4pIIUJGAfAe6uoTt8uKm+1AIqS+XwC0jngPyOHZRrPhj6IbnKMygtJTmg0U7EcvqjsvpDHeVqnHxo2K9rqZivLj4p/ZzkxBiyO6vNPY9pxG6xw5iDFNjA3QFJkX2fCc4eL9ZUGapjUMp4L93uFBs0lno1M9Msg0vq/XKnsBaQIWH+RxmvUjGr44QZH46TH2l4zRrbupi2ZE91vC7SFrUf0z/vwphdU3j2zgx56OchgOFDz92rfBC1wfchYohzYmh2q+E9E4Lp1gLfuhwT+JyFR5/TkP0/4OPmV/7/rIOCwguCB5tRjU2D2p3Iph1CBDD/Xk2Xg3XsU5v7kuyrpQxIgQwXX2PNdfXNGn5HdZgKYZ51jZtDWtIG/6lzn+feed0nukob8WxwMLnzcZrjzEVpV3tocRaO4VO33QucTgFsAJvLiqlD7gFrw6SBJnanb7+2kgnFHtxVyULWfAaO/X4XLo3/Ax/eJIPr3iRojqHvB7x5WMl0rQVV4rkbisK/Y+hIMzfJFYJD/dwx2uODktyVpeVGGRzSUsyd+8v+aRMzw4rkksT/ziHhajMPGNexPjYT6AhsZnIp6Vb7ydFHEKZlL03P4te3jCqLQl9a+1XeGbyx2bPN5K9ucYX6bQDmDP04YyojibOy2ynHOXYdj6W0eXOcwpwuNAyXuLs5ymYmCxlulb2rVyaZk0YYaU19Id77mk8r9KUOhBA87LuplkjIXnFfeOG9wlCxNZ1U8/iIbD7ToWQ3dqS4lUQB4wBFqtv7Y9Ik/3ZhjMRjWyLAnapwQYoDHqCzDnoM9xMZZcf1TAjPctVicGJa0hd90i6f9NE8SqvZKfDLhXb+xkjjEOkMxcTqDhg8Wh76L2EOOUF0QCO3q4Ydf3qSjdz3PCN0zSu1nYfAeu6FKax4BHzPhG+Vgek90yYtYtLqkrUsPfHoMN6zLELpApIA7F7ZROFOtnNDIjcZEv/+D8kauREY8LsY8gtT/PZjlgTRPiqA8Wz7bzihPb6G7O+/WDV/5zUB9ij17clfgB5NxU3lWbPPhMoaDRom6egGBusE0cjCssNgA7rBioxNa36uYOTjhdyytyrRE2Ka9SUxT4SEZKKaayeGPv1G3HOix+mPkO6UIycfh6Ez2XbTp0GG4ft7Xj/342rKHqGA3XxZ89rN0HlPNASP84bPcguV3FvectdWU6B6JEkaUOuCBFMVsIWIQzekEb1A7v7X20Yy7SA/9aSo+Lb+qOPrEFnymSuT/APghKF97rP/jIhmPQqOx9Jw7v6rUKoMSzfzKmrziauiboUM8OIiqXxTi1uOAbqmZW+DLP8IucHorxDWWApt00tyepSaUHjfSW+6elX744a960BbHJO2pLec8Dg7tZDU78xZRM5szz9W0Ff/xlVdKuYEqUmeYOMw6TmDhVTeeBPMUsQYvJfDDvANnq7A6VC3kHZZ+tjRp0q2utzkJqLU6rZ9DG5ctwu4D6+jHI7FSxGpZSMt3cBW9so45VGaX5NAPoOz6TbBu2hjVfdjCkQwDRVLX+nZWIdsGVAIEN77+d1BmOOBaFFstheppj6nND0z/KtsODR9fvZ/hdX9MpCZwz2GGK5y+O+++amrsGiaJFuQMFglLg7j/2TTWWUZdna3aPw4ori7OiUYVwPVcO63EKOs3zDcY1aG7+9V6ozkirUDlrR+cIFklSmjIP5lLOKmUn2vUolJ48sfK6s5aG9xD3nEVEOx4rj9BhIPyc8l8DIcC3rHx1BkH6Q4nPZq+yLKmoCCM9okzgeBx5c6J5hZ0HIMuJdEwD3TOC2f9lHrx1BtXSjYhrgY4WD/Zzj1MK6pH55MK9S0GtTJ8QroW2fUbTcIDCs0/SM9X2IBGvJSn2ft67STzQq7CTNHDgIEXqcGtFuZEYY20P5xnOD3dDIshQv3u5I8KZf0L0sv8ULccnC3Ty5oXfPNj+zeKGInTTC/IDFW8UM39zMRNO3WgJW8K0kTGvwseSPWhwrFZHlIPbGXXOiqD9ENQtXFRPHrpzSPER67DhSIVx+4Wq4eZVxrm/zDEcGS0cpRzYsBz2ldM3XcCvUEA9TCxr5mABBafiPZoYRRhRYijN3nRNtMs3RoUIyZRKmCkjEB8UELEeBE4n0A1J1jJl9crMvRnmT7lyIiiXZAyzVq/d8qxEVL8tnRKFEqCj0HphagKPdB5Uw3PFhl775dGCJevtOQ9PS3leuw5t4yRpIL+5/YmRalWAoCRjI+jf1l6/WZuGd14cunIay57cIn/eFYFExfYsXcaNRqFGiBY8JZFWps6IuFYWcQF9q1Bje2VMmazZh1qtpN7c9rkOP0FQ9S1bn2WfMuNQBxp+b9iXTmd1QT6uaRtJOkH9bMARvIkNTTqU4Wn09gxDTZy/eK30tlz6OgRNxzON62sW4lEu/CgmSh7G0yXK+ZBm2DbZ49HRamzrvuuVP9mfCOtrk8RhZK4C7ESgM/rQhj85BTAJo1ILtec4/v5FvDJKk/V5hi4w195boCf/7+BWAo2rBOeMn4v9vaFewQ6jRN9N7xqkRcBq5XnIJUO4HroMjVjcC7dYX/99r9O2wraBVrldSdMQg/ncq3h/JpD8CSToMGtWEh2bAi6BSe37y/I5jWfwsl+3/uLSOnJLnkknKQdx2U25WyUmDiJ/obChxMBIuxQse4o+LyE3hxaniEH+XR/U+DJ9zGZW2FS9plZycw85foSoR7ayDlYNeUgCtH59Pw/+lKP+YCw2rdGZG+ZIWpblN6yzsSfO/GZGxnCCDxWpQvVjrjvouMDUJERmX28jb40MT/6WR39Wgizx+zKY9IgA7smXwbEDeWUlIWCPvQf0b35+sy81I82zmjJLm9oPw29VwgsnlKSaDLx5mzoHU449uSt6k9AFSxZBIdUJcBjeX+wSflFyal1qvgw1RXwyXskvrEh8ZfJCjeP5ObruDCAZT7NErbOIejjptzht4+ITcBZd9iVrynfV1BXzBAfb4O2FeKhygpcsYPi+QsBZ0FqEIIKacQjCc+RHIItA0WARz2a1l4OyL36VDKh9GXqHFYPW/g5Yf8YcFPNjxIR/aT45Mz8BepqjGtT/f0KlxuQAX06ugOdB5y1yNakjPJ6vzYK99baAgJHfwPHLlNBsv7x89498FO2m0G3+gogvMH/7wKbsA+PhAzQXdPFlhrH8/j+4xWHzWTyxmtKNwhqWLfS70EAvjgTZG6oDqYLi4YLR/Fz/8nr3BP20HbvcEPlWkSvBaRyjE+L2ON05ntt2qfKXWV6fTgGqdtKkZy1OPUDlaFKdhpENkfCeSNUFcx5dmcmwUm2612V7A6su8T4pN83vl8pLq0m8NBKeAZQA+UI9hyr0uKICvkK1sGzq4//6sKePFXZeaU7uCbMh4tMp+OL672t8y+wRztNLjWmFintxIqQIp3pl54zA8I5EPidKAd6jlgWDju0IPN3pg6SudlnU9uCdbnGvUC5zw5L6yC8dv2Ke5A/B0W+U1tWaliOP1sm/Eupv9tYIvzvial42glyI5dtT13cEWfhmMH27qPWsi6VRwFgGJOE3stGGvwlK5GR12353C0qTZSDsoveVqsA8/ba8NGtlhOFytyIMh3rJU7F4bY/IdVC3Fv41irSaWAtIYF5JTLOn50ztyyJYgraqY9cEk+vaqY5MnLpli/fi+656I5iVRLf/1qT2r+JlYiVtkCLzPb5fobRSbmMsvleUMUZ3DyZj54dC21DDXoiAsNVvj+13oG3l3rFdPSvDPYnjNBKWw5fkpR6TK+aJsryd0ewlu1GnaHSolsV8SaJPEB/CunqcBIkmCeTRS9IC+h+rslrD52porbY6SdcuARyhBMiHfCWkO6RNbLLEbZEYIM66w3OY5l0jxf1JSPofgPLxLJVsgyy1m6n80hqpsW4t5GigFIt3OV12wlr5AYWTAr/JuA6/+19GeNMRcYt9aghc3L04bXc9RDLPW8p5mdQCiZPAFFUNf7M5x8OX5FzjI8Z/Apc/vkgV+0ya4NbyEV9S4oQ5tVg0tjRozdWhQnUJxxma6Vkn28UU59IUrd2q6x/qV1J8Kvl7kUrYjVpJePyszJgOniLFxFGEvQ+BiQ62giGjh4L4W3KxCn881EOALE/fmjCjrIFRe7Xy52MvABTeaU9V7fOl6X+4vP2HwY7syTuGnAhnXotr0gA0la2KwU2+p0lYAQu544vIsU4IW0eEpabTRDQMpxf63LQCey+3Z+lcjIRBTPxJgOQIRKdtP2MPgaao3liTwAQGC8LYLJ/giDACFhIIr76dTyMoaYWN9iJKkvRu6BefFQXleQ6VlxYlt4ZMfYvGq5hClYrqQbqjO1NeuLfZOPddl0/bVWn4sgnGxDeX0dPgu3jws606SCxgGwT240ecj7HfHwYjzyjAfVCaPZ31Cbm8OtmzdOgU/MeI9wWAxr4PAA4sGZ8E350S0ST7zidjGlO9//KbdZ47KktDcew6bpWAADRFBSp+8L4F5V8h5XHqSDOLtjNzdIfpje5pGNxv9Uv8xvY92Oy6zn5XhEDaF0615EuiBOyvgxcZPTasb5uPo2UhnNlbxrlsu3Rzwi0EO0GOzT0iZan8Bc6JZQDez1j2xkaYGG2Y9uHFwoq0Lrl5D+lYq+98qfgM0kT/rNEpUYYlNCDd2dcQWNEbb+8qTZgnIHZRbURD37brapzNLmcjDsgfWNnzlsij+BCkbf0DJ+5DgilVIpLmYuT8FgUbRUdjVn1DNZ7RUSQNtlli2Sl4SSoQl+0DVmObTSHaVZjoPdjtaZMkKqNNNCxEqi3EUZKtfabNT5iz+iRSWvH2AcAZ8oCGwkYMWShLEjf4nDsLSeKBWywYJNhRtWT3V+vOLsBFHURYx6D/Ro6m4dZt3Nt2EsgoyalboVezEqoejbcqihGrP4bvLtcveYPE6lfssLURxXm6tcbkePGvKt//UtbUzoWcuBeC0QwW9ON+n2mgNx+HrkGKDa8aBEEO9LWwb1ZYH4xgLHi2PccO0FtVA6ycaG1BPhmGwbE+KOjF2lG2G6MyGYTH3NyYixXQ2P9ebL13QDVuXoNzyEMZGW1G3+rHQ5mha1vpPUr1FV1nlyOpnuMLNBoOfQCFVg9j6z1ftlhbHRUde07q/CW2/Ti3NxyjC1+NQgybEg9VNDrgGfRTepxhfky7zV5/rG9rfRel5lCIUOJtWJrIm5oljYN//4EB6ZJHlaj3xCGkW2a8B3NVPM//2qguXYAKpRu21Ddo+nhtPQ9AqXdQfURH1CDKbeOR4lCtb72TCyFgDgkrwHsY5sGiIekb8Lh7RHGb2r+TZddbFVaY1ZQH25IX9jNTh52YegjSywCUOc/RuqOE5iXPoNKnY8R87l1yX1LC0GVogFwK+3c7zOhBs5J24thlO9+Tp42HUHTIV3SNrMlkFZ7gh6XMMMCx825aZkb/chh76q/zKAFVnb6MBMes1n02xyZ8BdajXAzYCnL1oUHYsWJ/xyovzwNzKf/r2QdmD013my5XrDhNx4PfTVMXfuMFxBOXzZ5i8SsvN