[{"device_id":"224904af1fc7ec895c764b361a04a167504d8af498a36c576e8c53b928fb8730","trial_type":"initialize-camera","trial_index":0,"plugin_version":"2.0.0","time_elapsed":2613},{"rt":null,"stimulus":"<div style=\"width:100vw; height:100vh; position: relative;\">\n                  <div style=\"width:15px; height:15px; border-radius:15px; background-color: #000; position:absolute; top: [object Object]%; left: [object Object]%;\"></div>\n                  </div>","response":null,"trial_type":"html-keyboard-response","trial_index":1,"plugin_version":"2.0.0","time_elapsed":4618,"extension_type":["record-video"],"extension_version":["1.1.0"],"record_video_data":"GkXfo6NChoEBQveBAULygQRC84EIQoKIbWF0cm9za2FCh4EEQoWBAhhTgGcB/////////xVJqWaZKtexgw9CQE2AhkNocm9tZVdBhkNocm9tZRZUrmutrqvXgQFzxYe2jCoPIVheg4EBho9WX01QRUc0L0lTTy9BVkPgiLCCAoC6ggHgH0O2dQH/////////54EAoyCJrYEAAIAAAAABJ0IAHomKOBQHtNQEBBrYeEQjPAAAAAEozjyAAAAAASW4AEAAi/y//eogAAQDsnv3f0mh8cAArCGGBk9P/7wsLEJ4gH+v/6vnwZGg76aJlpCru8BYcBCpwSloGMrjF4/KT/jYPkTn8cT/JfG8vpQDwiZ+4J+v/daxR5XndUS/mfA/XenxOlf8PpSMwB3g6AQJSydJMyST9zUjZW/L2McRB+IeoZkSishwAIVerSt3hHfRkAWsD1Q9NipJUuk6es0GjuKn4W90fOKBQoFN6KeCJBa8DxGgkQ+o8j+D/VcDDyCrbecTIxuXEcXh6eqj8sQXtUoxR9wIwCuCqDdEwCAa1nhsuFaBa0OgBXwcAnvDIGIttAPtxZ4xqY5YMnF1Z6K3eTMstuTsciH7z69uYj9Qyh32/2pH8sBv3v/9/T4ZZO9P7fipv1VX7//l+FK36/4N6MGFJuBsKQwHVxGCCUmQkYnxadIGLkfbKY4fk2vEytCoKhLDwckBuT9e65QFbdld5omzZsxGle8Rx4k96X//4J6/e8T//6/D1f/z/w9XhPC1C//09/9m9rHGYBCsxGLbZTmv3xuAG2Z9eAGPJivBgscyHvvouFsXpbxV2rgRvkHprzGOP/zx9sgYn7p8WkAC78rgL6wI6Tj50NSIHaI/5xpBrCvyCL3FKlHEBvdOZh+sd+JWZnbPiEtvrUZr/LKCySOhEPOpEUvxqQGk8w4A3aTOJhtIzlMqI0bVOy0F/Eb7FaW3jxnTUxK5yrInSmsKAdKiB5kv1v80LFFjX+0qoqzAB3ufGMsnmaf2qpM0jDejMy+MORIPpzXArYMaURgxBF/yy6yFMmme38339Z3kM2eleOlMcqgv/L1WX4etWMGE3weeyKx+3/9Pz6b3oIfv+gf/xxHI/4myJS7CJTe4BP48R5Q7xVLmikKnr6if8jjc0m590HiOI//FZoWy8yUzuTL84Oipnpd4imZaU3FbURxcAkUmLWapyOxRVzTWou6wFdbKxyTXs5I8Dd0J0E7dU1+zMAg3nwRtM6yBaV9SHvFfuX//XfsDdn3y40rieBHFf+v9uO+LhZUfjAgdn//ynpQpejffF7Ijlu++/9xRP55rmkpx8Y0mitd9Ju48igNsvAiHhOtUvEy9exXaEVCNgg9//y4nxOKHX4Qfww4RwTIACrQQv5mB30BIgpB5YwlxlR6PE+IAXhpumNVTwuHlnb4P4f8BFyelLcwKMFwdJg3xvHkD7AF6iHCbDUFXWeABxr0///fjdHNz0Whlr7LRAXBzA6WJZF0JSRmLt7iP4ztmV3g1KDEGijTmGgqdw6HFUnUjv7n3RMZqIlLaYxh6tiQDXqABKn31L4exdikzh/934lxQbQjhrCW9F6A/xLpV///GSPRhyCyif4FRKmliHGiXLk4DKn6Jg2qiWFDUZh45j9P+tb5NM5HCcuv9+3+P0v/pe3DF4nsy5WXpBX//9N4lVqVQ44ZaD/8Xv79wCEWxCLttZmdhWxkI+rx6jT6gSPDpc2ONTgR9gHYiio3Mll+///8sIBQwDQh40q0ArzuBZWFfcxHZvH5xELbdAxg6gIpQR3ur4BKLVRFeb2cbgBkxg4gDHeXMoxyg9FZch38ivxavzu/7+5lTs/E4BLigZudezhEeQuFeCAVvnEiCHkGo0wRXrtQGcgV/hXfDF3TJuZ0OrgRrwUG4+GIDBR0RYY833ui2FJ0D/3SAuD3dqdzN4toPWbPsf7XSSMxrYJrCivix+Rmt/0+6R0XK9+MJP77u8qhx4eoO+/f/xOJSL2orahif1CuIVH/+nqEVEDn/9PmTzLkXu1V+CR8D25DsEIosqIGNMsaGRIJhdW1hyGf7fl/xYi9PiFcpi93d5fLjf6/rxe77u78pIPsCO/6C/boDEuFAUDR6r//Q8Iq16B//KpoUmAKmlODeXsOtJI7BcvSfPhE+RWp8Cvpq5OqEyaNTbJXdypydPCuf//5faXj8aQ//fol9ht0wPUqRB5RKXAO9aZ4R8BQLA+2HJwEDDxc5a+EmBH0pG5V4jQnZdz4EZARoHTgIMnKVXirEypFcBE1pnCvBsAQf5YVDZocVmQyaz/Qg693h/7zg5RzKUCnPN38EBTF2obYLGCkji+cYMcQsyIeY+Af9K5lMPdSiPTrrTG5UeNvSCjSjW8mK3qzwpxrh+mn9kLh/K14+M/u+iFt/zgsZis++0e4VFl/8yny4aQaQrhcEAAftBoWta+4SsTtNvJPmUE/iVzKaYHr2mQPPkw5sRo/SfUairT/dkpObMQe4y57eB+TUeoTDXT7f5VHwiqP/6ebbcTwTn9TqLvCOGE+jpaD+3x+Ol3T//+NmZ7WnG/bHB3tRuNB/oFWjF9gGEN7PDBoWWh+gHvr1wFvVQ7XQKxN8l5udEoJVrlMLKepj04SbnPdX+mjdYUIHn1pfH+340QVqS3UXn6LA+ZcPXxNgAEFkBty12OhmLIHeNtAiBX5y3n0KgY9s8yg6PrLh2UjMC9qIFQ9C/6jXGTCjiQMHcy5BXtw76+e8kAdbmA1otdmckf+2lZjJmnLUqMvXZW4pWN2g7v4JdiSPXMv/ir+LmMz/WlyMbLSV01ScdxfbgZzy7IbtTjZkRqvD/v6opOK35b/US7NqPUfX+v0eVQwyikhD3Ugjtf/9hBHDw4UH//hHApg6z/sFR9H3yK5F+t+EuGlhIoL2QLMVs46GkdBRIAu7UXdG0PY2/Fy6uBATfUQHv93ZPdNsDfjMZ799/5NZcGRBIspi/oNw/nnADPyLAxRT+vQbnAlYH2X6+Xv3fOMF73m4RX9AX/iVPlR+If//0II5PQF/8pLCONNyaf0/8uPINHGQI/SliqB3xWNpx5z4sHGZX8C9M1MWJJGP/kMxpaz//XILv7eb8eK9/KuO5DetP4WcsJuowocgG4+WQ5GSB+1xMu4yu70e5JekMmVmB7YkFoX0eUQpI5hprw8mO2clzM1QINsk2DBHvd8XWbc5LYIbc/AbO/pANnrPZIeOjL0w4cxBbXQe2olH3cvt9Ijog6C01uHDCQ6HYTkbtg6Z8ZT+ae23+vDdTmax7Q4s59B4FgAe39zGO0JBUeCGagz2SFVB/tsZV6pkwGwdE9/rvYID/EeCLUkTMLaLFX9Wc+kl5xhZFyrqurfrOE0zdPEKdgyLP41p0ErbLoZSm9KtwnDAHJ7kVLrnoCUMY4niVUYVXEtgfGprHOxKFG6Zj0kYHFjcX97sIrkWAqiy0Gx31wBDn9s4kUjeGmNVSTZRcZdcWHfmdFaKYzFb4or76YF8zmFskyqo6r6idSOIffkEJmVtKJqme2u8UfbCK3BBxgMaMj6wPL7XbVKsf+QLymaWCGCsfJc7Hw7tLSr4oNMw8vJ1Jo8vro4A+6JZY9baZaVlcNSbC56hHJv/p/PjdVQnkd/Z/7y4hoEVOQf6/4RcQiA//9Pv9lfZtXTfisJuXvX2UBgT8gIe9sGnKB9TfJH/fK2tOOUfahF2QOy7bka//kNzU2gq20VrMZhYRux+vfgAWgHv6JxmCYUchRx6zD/p64ewr/Mrt6kkB/afADZAYjP/fvBY+5jiT7yIBlUbFr3SnpmCQcE9lQNVM86NGAehf9FC+2/s/k1pHa8OK/UPM+aEgU7mpeyxjNEBvr6rHm6KBQzM/OwVewHL8aH/NbxIBfYj3zCAR8gsUuuR0MpS2Gw7ym2ctBQN/fUqiSSiHx+ZcuFtDCTnM9cl37LXC7a4747H3++8u72j4QPcnvIuPzjB7Ow//COEEOs9gPp2H/7EVyL1Irum7hluwqEKCYmUYnA4u9JjfCISasq92M5fvly+RUvA9kWJQwFyjWcQG93pfsC2lcpZGn5xgiugI6gBgeK/+v9AwBV4W/DvmQyRYS5E71WBDpM2RZXv3+98imONEbcJYAx76221FtuAxC5BEA4u6TzvoDMz9dpPzK9vMdupRgfvYWVLowgdp9a3HSYMIGyLplVwioik6NAdD/4RVP/2/lz8+EJcY2ktKS00it9zJM0xp8OjUzlAODuZs95FnHJWs0f35ljtuIcgFXIRcCgpIxYfBGAWaOZvAP8CjrYbJ52fvY2FrBaO2cAK4YgiA82K+15q3G7H4weE3NBiHKHTbMbm8bgexkWmOkIPmofDX0jggZZSrcv3YgOnx+N68ZZwS2fRGmSqnTszhy533NUuqx+YKR3pI6aeARYvFKQ9De65rq3anMfnkmQ0NKVuZEzgerLBIymxeJbB/R76W4TYGN07dLzXEoT4slt4TRkp3e0po1u3ZcOn0ujKDGViYyrSzj67wjakrqwC5OHB/FQh45KGuUFkYjs0+r9dEqdRtirz7uPD6rWsC27rEMfq2jcx4lupLui4xqQmu+pqulqbOZ9Tzq1Fj95EWbObNa8JnTp3W9HaV9r8npX9MJa09O1G1HXZjGqU5WARXWYcKTBXP79cwRx1l3c3f9bozV5gaVFwZ2QTw/Vv/+lUI4ebY+9+/lcVRcb8Pxqn/r8K5t/6C/r9rUZkiMi8ANqMdZloCNVa91SlsXyLhHp6JHhZ3j/o2wRfDHIFP1uIgoCFk1tAuY5wyKeF2XoDN9pmqAQP/1F+iGd3+19/kwCJivRsAlgEYJD8fLtp/+0a54CklQEroeaKAdykxf8gVGmAAIAzgL/vKhhk88zPQf8/aDkHPqJkyQ5gapBRVKq+/fyJoOGD2NTUAAohhuADrHPci9UcqWOVCRBn3b1Cyfg3IJpFbzPfN92aZBygGi7NIvMHXIIb/+tONmVFKlUv6H8PZ6fyybdN+yPcyj/o/wjh9AefarT/COUkn//pj3X/229uP0dv9Af24Vw7OL/6X298ikRfSp7isMt7bBY3h/HB3jM6FjG1Sk2a5/nfvMPgBSLgh/7vmU5cvLl2PuWZZ827oHEdRdwCxQ3THPAALeooMqFxhHcVvbgArU2eBGHa8yry+Nqkn+58AO7DpCFTF5CBj4IDyQ+vRoIJtY/BUX2ClGDuEAd2FK6IEmXuxfKSfXgCuwoKmS8/yDHIY0f/8cfXfvYDe7BPtHuDrwgQ//8fg66f9gdPTicML0DQiS36X/x6v//ocI4o/+g/7l8Kew333p73A+Nd0axdrTnamBZLV9TGoIHldWfMFR5ZzyodABxwoe6UHR/I2rcrF5Fr6joQC3ilqtMdGQLTOAuZwwftvIZa3J36spiDy5jRkatiRh1koRhIBlDTyIhqEKwsXeOdxvoudQeLvuALQHWxSP1fMRjOnXOAaJCOUMcQAhj4RAqzD6bhgcOukT0r1V8secSQHDFCh83Jd38f9XBR/8mwh4IEEaw+SY0cPiG2acUG1MKDmKs8urtffntIED7RtrrSLsZd//e/WDRmRL8LYLkU1JZUaHDYOr0iXtLkZX2+K9Kq9VF6zM+xIKCHPgcxYNDmoPIOMLDzxCdhQ0ZEkHxFqH7P1PNMWsVq3xb4GuZuq1VK+AOV54t7GHUEmtB4CMOVAETN4v8vqmJby9fzB8RB6N/QNoEvBnUf/BVhjjfIlTRFVODyhgNmTYaUNcJbx6XreHumj1oM2SzEoe5Qj/7eDHb0OGZHQ6Aqx0a1ohnjLb41Y4jsMQt++m8MOa2lGp9GpqR2k/OV7jmtL14MV0sd7Tv+q4e5JLuZBcq6l4gNxyqGGdvDuWK5TEqthFyEua//wjg64/7/8+1vYmZCt7uwNsASN5AgpTwI9w2KrNghq3VniMZqJo5kUFXWDpFfW1/ZTH2sA7aJ1qXQ+LjJP+yl7g0MpRv/+kIRSlaKrI1IwNh60xNQTlnzRiQGqB5puwnfubcj+9gqon3pgAUvMDTE6fRMABCyb+aIAB3pmHX5KVSA4gc8V218SwFfThvU92//KE+xMxvaetQyN4k3VVraE09t7vPTUMpe9kRsO3QtA7/v5F49qvVh5cvsD9AotinFqG+8jf958/VoUzZtvxtxduz3cBHKGZ//p+8g+PyYwK3/9OPxP//sFwjhIqez/4e6ODj84C2f6Fp6dcyLkX6vQ3oOATykgexWKB2AHVwpsF2Bl3L5IVrmnf8eMoWbC/eQTit8uJPBXJzYCYt0pcuNK8AN61AyiF6QQWQG1gyhivA4hWuBxNfeAo+yhEA4vp2W/5blqrMy9uDMCAE4BCHu/xINaG4HuxGpGBDqL5gGrpCsNLhHCo4L7xKXferovPAQ57z0QF8v8QqoE7ufxvKETo2H3sCt7dAXcZ0+5YWBRiGF3r9BytHMVv3Nw2n0ECmbam9Tj9rT/9PCOJHPov/COBruT/b/hHG10//4/Civ9P/H5s2+gf0L7YeX2rd5WSY5saIU1vFYO08HJZt9znY2YJ9mpzja+jm4+KfU1N2B2w++MeBAgGP2ac1iVK28EJshYCk7XQDTXjgTQJ5IakAoMJWSgtNhOyj3HPmCdycwygzSey3fjJhVgJgGb/RsvelDMHQbabj6O6qXxfZXhKfZ5TjiORutRhBXDhmW/0Xpjj1SRwODfUIjFn5VmEBGJA9yfbP7p44XsGsvbZsbbsx5kWlvhKJ/rL2lUoD3b+mn7/m74LlZsLw3luXltSU6UVTO3/2SOlGnZZPaG5JICqllkjYAYRuQIfmMpIH98wyuQwiK+MZA5t0cwOm8w8X3gswaPbemLZvXAAr1vXrJIB7uWHftAiv9Rjm0fVUXJr7BhfwWlxg+O1ND+zWOnD40uX8R90JaPep+B/CEpuY68Oz01YOnzG0MU23pp+q6Cca1t317zQL/7UaLgV5TMbmmx9v/1D1bm9YlJdJpAbeTv8rjSEl4FEucJMiKI7firFeOPFutUWhpFdB5MxCUPM+lLuBudbmLJs2C8wwEmoTtLQ+X2h2WB/NIUx8m1T+FA5RwPt2qoqNhJen1pBAsVbIKBIMEBReM8WLrGuKq4ss7XSdBNIGoAjwsZt6jRyewqTCBU2pjvJaKdTFdNjGFzG1uNnW0vSEf5I3+uFJ40YaomX+uYoaSSLAmPocY3enQwQ3LFTcciOlDZmNMKDTK63R5ohVWO4sQynECSv686f0li38oYD3g4Zq3qictcqiHB+NO3p//HuaX0//K5KBHH2f//AJjb73/a0oNbAdYI9uyCA/Sv0rf+4RbkzH9XfwFrYLKKNeWUocryxH8jaNoOw//MAq0mL4kTxSRV15qK3oWtpkJ3MDCLDf4nC2gAK9H+RQOsTD//kUgBdjoDp/EUDeJEaX57GGUuzNMnDReBF0TXisgyJX9miw8PwGp8XX+mGUbIWKeZsiR45Pof2GkvjBkZjn5JTN3OdGgMsKfI2aHinr2PSfgA6mgiyGQwv7pb3ijYfx1xylg3vy7du/fscrVEf5Z8uM/Pc9/Q9XR+eu3/9NMI6euiQv6x7hGt6xRCQS//4/D5Nx6C/+PwLZ1nm3NL7LxXEiyL9UW7jgpziAgHrOKIgHsk7AwAt24URA5skFld7nPi7/yH3pTTsuv/vdy4g3/jv3J5FnpT0QloQDAYkYastxAIyg29YI9s3oTcLVNE2AmSLVAPybEk7VK2TgdG/vHbS6UI2Zwc36sDUds5PiIDNi+OM2ID640QuWTpaeK38XZOV8f1Gp4HsHmP3drCBqnf6EVCd6xgUP+wOcI9iCuKDMFejlGWebevZ/dKpRPTO4a02ijzL7lmV9Kcn+IrTW6df/0663vvf4BuFcbi/eFdl/6f2hFQwDJsF//HqMI/QH/8pMuSG32lsACwhL0SsbKnV7w3JFjoaWSk4RNJv3vYAxvZQVnGrWCTTRdZZVBgtmjn70jPjdvnpgBM3wQjU8PBq6Wuz3ieqFC7vf4jgDVCT1/kxkV++7uI3svtyfBOSW8/kRqO7kDkoAA8J2tpnVAwdnIi4zxQrmNohkDt0haGSotS6BwGV5c/FxXwKsA9Zs20txu39ak2BAWVh80nFvEu7R8BkIM4s0SMzuGJBbgmncO9l/4UgpE9R90iZQ3A0Saqi7x9XVbadJrqcSl9oP3hIwt1I392h0rOmXhxodmrOI/m7eD/p6amLqIyg3fVYBJ/rf4dBWbDcLJgYzVb5Xr10DmBSz34mp2YDLYfOKEfIOh7/kqBqNj+OS+bvF3vHu3ApGqYBZ5x9lP3TKqQA3G/oLaEoBG2Wrk9yjQbvzWng9zvkZtPt++/Zzf0qMF49Gpr9BwG6UQ4XDnL8dmWut9cVmuEkfn2Vedsr0rpQvOBkTeNMv9rXRGSvCaL1FwVu5NbR+/2Jm2twdsC2SIAvGB269DZ/k3+ldXp6/io9hYol8BWbMKtC4hEDI3Bt8uRaUbPTQSNc1KxDSK9DqyV0QLdMc3STetQpwzKPovP9+wJ+jhUfZ2D4ImgUfhbJdby8cbUtfnnAkjX3UnasgzgasL63rd6X5H9BLAMtEkutAE8H7cRtR6ol2xp7ibijGPBDwU3B23XXtq9sDufO+iXVpXRDTi9Kf4zxkyeSN8O6VMu1UTLh6SBw02/X15XCg1BH/b///6uo7BPfelcIqKfYP//9mSqizMSfdHlZjyAj32A4qsXgjsWJz5eAhTIJ7TE+0x72yoiNjHycpvWFw16Iki1///rfAQATzVDCv1gYQC0dxZLl0sF/ldv1GgAZUZTf57+sEt5Yc3/xa2kPSgJgk13nAACKRB4qw0rDPOXMQhzvPQNW42hb40AAZZyIc34dIFY/F/zmfMBYUzyKRLobIrZEP87hUzzYIX3oE8IiZXDIVVXjVKr/+7RSZE2SscflgryZQ3jP5/NteB77J8FSJd1DSYsK7pOOd52suH5eNuyEVGV/6f7xW+PUIvTdeTeQYPhHBDTYh/6fsd8ZE7kXqRbBvdwk7uQB7uFJg+0oIAnDAQDjs4iIAYvrT82dQODp+/eMf9QTmbOw/uYX19+lIPveOiBOW/MpZFIi163uXEmzF1Br+C42hXjKaO7nzmHYGAXeBGD15I1oZz39X0upHSvN1eHFTTGBKJC2BIKDvbO/QRf0dTlEOUh/8Jw5iqL9NxYEDVR/dn2AnUfW+4ZI891nxnguBjGpO5HeJ5sBsCQabsEFuDiQu0bjSDoa01uKjtTxeIH20EwSmHUVQZI+hs7S7GUN5UJ+rsBaEoEIPK3ydSIHvTgKOkOPIRFHZ5ZjxmlbZmAq8038ZTJAP5V/y1nEB37it++2iGmmelDua5JTlhtp7TdsOTNOaz9WQmXZZcCOI7/ppz8fhVZf9j/COJRAf/YvQII7VBf0Bfj1//sacprs93hpGy2DDcJiEfJ8hFUFrQPZW/gKXvq3BUZuCMD+Rv8dN4/DsmqO8kJg73YAO0ZoKavj9/30vCQsREPS1DW1lj6bHF+CkrLPsfgJe/0hddNPksY6rfpm7/d3yBm0aDcEspUYDxAKfz/eFDG9RPfg69dWTMNk0DMlrqhJEdT847G6aMhUG3VfViUprAnCwAlVYveK7Og63mfPgWzMxz/J5xOnAFXJHBHWgY1/AhG3MOD055juUAcyxaSCwUT/ikHq3MjwHH7Ds7/gYBVhgYkn1fE4yz/dUW/WKGokqrryxLk/24dRh3O/t8zh8qDaz3p6chZ2PZbiG1LMgBbSRoqkEqYfjjBmk0j+jhISOJuxmPi+aXJBeGmlHn9ozI06VspnIbl/lbvVztCJGNRQemFirjhgpiUguu2AzThqpl0IK9hnfBhxAvBgFhldCWL/Cv1iKQJk8dKtvCzvGW4xhC33Nn/AvgFPS1AA6BDuA2R8yVnAIr9wYRdprjfoRbByneIH4508/NGscoyivmZukjN/YMbiYf1L9FxxuKFbpfWl6Y05zbaXJ+GCtnjffo+PuHCY57EPSE92duM+osYqTd2kiiobdPHGWBuAgnW+AI6jVMGHxBj2SA15vDAWWWDWW9akdgmupdrV79pg0e+DGsS/7sqGC1HUEFyBHVFztA2rIGfnrJJox9AioP/6kjZbqXvAKQMpn595OTa69VcHNQgAuArAj6PK+kQ15xTMgGIo3jxuN4CS32Ggx6H/SsMd4CR3e3NGXvhXUPkr+3MAL/YatqvtyKVUX1LFVWceOOCtBST+Xbcu3vQ86Rc4wtMVXRmIJwNWRhen0nIBZJBTh7joUxSKSAsa8PPOmvnrR8bcKk7nwx62kLn5uDda9rQvmeJJhoMtxdMkSmU9gcOr9eafQ00R+I2Xbb9gxcFqC8yb/xI2PaKzs91xAUFwrDbL/XYhJX2AIz6aaX5kGGwst0Dpu0VzWHLBkOThIOkwYQGPrSA/525qM2tyDYYjP7/d8AoiYolEovtKdhbgSbaU46PJYJbjW/1+xW4cRDVa0b9Nfkspf1/+nXWr85j78KuEf3pUESUqf+h/H5MYH///5/7ME/sOAM2bV8+iHqRrSszZjbB3DXKPp0BHmKALhyuMy7tIst93Q+Nh/2PACaaAASbOLjbahAhIj+YPX8QSHEDJxo8k29C/tn237Gz2SFAT/eyi01f5+I9kMI8VS83/JcnuABY6u52jqNi/xMNwGkOvqUD609kUH3JmM2blqtisMyKOKekQ0KewE1ECW3QIT+se/Duc77n8UzI/8HnAX5ko/AmL/nW7evFFm/dJ4yj82LMVte5L9Kcf9Y+7P7+ivSdCLp//9Mfnz+129tsI54ew/3rhHFGn2B/9Bf5E8ifvUowd3OICGYfqAe7gpEBdhWKx0eCAcdwUmDi2JkZNzHd/77+y3FycigNHV4HpMXxxgyhW/pl7SbI1tMf3kEiuRve6WXhZNhYy2EjuLGZoyPq9l+ho4rctCoObeSDvt36+65+1Cw7++iese+B99+F7xyLkGGQyjAlSugsn9wmwmvY1x3KQRmM77bPIaeu9GtzVjp4UWgV0X6KUkib04qPDZK2i2I0irNaD/LjBmh/eY4I0RRQdK66bQxccQXXsD4AkCsCgSOt24yqkgPs74byIn3FZO+pj6gSTxIbZ4JG55u4E923QYA96XuqyDdw3sN/i2YN1bFJi2pG19v0cEXGTk71jvgwMfBc+hRilC28M7BqxlM8SgCpw3uGQtNR2aityZrsF1jKjJ//tvjqMNxwgv2BRsSW6AujFqnh+8SIa9n3SiCpFxLH0x9/gff01T///Uv9bu7y4w8T9+aTR/27u/dhKbteNA/ugVKfQz6bxOHR1ny4lrZDPMsur2qu7hHDz3f+n5cblHxiMa1DqEDUh8EppI9Q+8d0U4k/QBmQCbXFEuSzyHbffWxDOjcAGH6fS0KM5r5pam1gAhAgKJhfVzbsjXrAL6tiXUpUfCKU2bZiLzFlXyCBbPCDFTQEduCwqXUM3i5/9sTSOJpJpbY3hsK7XBw9B6LSmO9KNE/NLnn6SEx/DGI4wFAIB4gUrnHYN3Sxd3dwW6gZXgsYds/OltE7EHUk0n3BdT9jCOiXznTLaKDGO1f4Lawp8LZgj0Ng5tcyg73FxL0Gt/mHCV/++QwkeDgisn6iwGDkVYYpvhYFefov/XeQvj7N9Y1IFb/Pz+ESXOLgI+xMSz+0br/2oNo9AXzIJHTOwI5kXPI/7AdNDQx94+O/r9Ga3/fxoDe2It/WfOgqjXXQe2KWVb/SajaPNksyqIQmzAbAUY5cUbI7enqRnPfToApOk6UOvTdttbIaDj8bjTKebQfoVKO8vN7dFIyI3saKJe+jzl578PMsYzJ8b+1EA/7/dgNOxV+oFo5PXkk+EWg/f1/90v/dL1OtUMTzUsofDBZU9QGygnsfn2RZgYOqg/EHmvl2I6D/wEizp++OfNd/gWIFK81gfiwX563CA9QuHVSa6/C2enSf7bcWKHqoqioT2uGPYG/Whb4pMsT25/vyA89nH5Lp/7SV8Vhh2z/81U9EUhE0pHZvPzlgtuRKdDnFiK98/v+hQSmmCZNGiDJiwwQOsSGCGb369vi35iMXbK/eER2YrkMPA1urb3gIrnYjynksOeK3c4AhQS4b3iMHE/4wnSiWtSw6baOgpqTLeksZbKykXRX12c7AYOLfnNEJFfQEQz/CD+ss2MuG419PXsFjYfxwgWBqd0s6WlXrxODI2TEr/sTNZi2VO+OjtDSQoGu6IUUs14K5vijvfn4VnPBlULICGHRuAAVbD4xmJTZgn8gutkb+vW4wASyLWxR/1rxpbP8E34pBSVZqRA/YXdWtSz8AApb4ir+emi8yClF0rQiSoWdv/3mhwLlTitnmJLOx+wAlzSMOEy+f1zkvgyHPyUa+c2gakhw4xwaaAVrpnAhGu0ZVLMO0KszLaT7+v32O5SUtepD0t4vC/NcvnfvV59HqPiof+YYf3tBEkLJj/9f3yLIn7pb6RhRwFHxTYcMZKkPADsFIFdxWxk3f0L9/xIoC5ORTbvpA+xr4r7lgwYoMV2Ajq+V/3kWRyn9XbkIsUftHTYwwyAHTT2E2Wg9veaMoig6MCzN+AiC9ohmbOFy+yR7SB4+/94B9Qx0sfQvbEy69Lie/bJ99vGJNw/BTv3f6EVCoAphOgfMrOFaAkCZ/0IbAOUHKRX7Y2A6e7BgFBYSF4AQL6fdE0DZhOtnszL3InLJzIQAXrALLJGbADvJ7kuFwHA77AU/XUYrgAWARfj98Aq9T/cDePYCbtgBTQdfyP3MgMik75ua88yHQBvLNyr9721gMQfIV7YHedwK8KDVr7LOPdvO31CQ17wDCD8AIgKSYfrJNB2n5jPN7Pv/QpvlbNm67YYiDtXA1CMJuwpF0BMHXQ9rL4ef6ae9nN3vz/iQfXpG+vDBPP1WbSxWU3QTB3voD6bmwJBTaKNIcKXWL+mOAOtLM3Xgf0tvOkLaDrfo//H/3eTXTps+/fyYfw+nykjorAdH7CpefQ/0FEtM6xAmkwY03uNtzsYwp5W+SYJ5Br0Dru0/bx+marZK724bs0jcpJ2XSIC7MsX994baqmX/WP0uEA1VFzlwdaux8GhK5FHLoH2cXTh0xl9Uy8fcf0uPPv7pDdLCCJ8jrnkbagPyomNlU0gGOgg/7vrr/07pPpXO2BXU7Ki6L1ld4LPXIVx9crLDRKVtMAq69AlW469Z00ZwNlSqWFMBoDJbZRx/Umw09AIis9BDpuDOHixVx/6sHOmao4QB0fduDCLKvjG1ZGhsTCIZMQ9uc95thqL8U7t7/X//hfTP+LysiB5Gv9fjCCsfhPgKHLoAVSDqn0B1wrLmdBqxUA2GIiSceiNz+eWFxCT7kVpXLbvgfM1XPAz40v+cPfQApVfgzAWwvxa/zC37zeGhupnnAfE2NWP5O+ReAdTYBa2ovPDjvQXZf7QqU29OvjrSWzXsMaMR9TXtsthhTQ0iLxBzDlFBpkilyNBX1as3J1pdTEOO7It5dVAHM0wxqElxSy+fmE2bQAYeCG5ksGqCuAPoo12jGjfH4FLxV9N93pVboImadQ1OTHBe/gv9VxQAjyIwakM4/X63dGJ/Q/ZrQo0DEHTyOU0ose0mS8wdatwcDeimnPh95I/Y0VQMkQPUmTiXG4rObSJS0Wm494cdacfJXFgbsFffbN+sxqVKgxML1epnxdG9s6UOJm4WI5tFwwjirBnNVfamVNLuf2AIKtq9SfuZkkfdb2+zNM6gH6fxG9DeZgvb3GKzFKUJP8mJZNgA2EcfWe90FUvaAKpCuqFgQ1ShR1MjqQ4oigTbeW5mwg+1vSoZUwQeDy88DwcVosIiiUQ0lBqN6Tqxd2dsbUZcCD72j5NzTpP7okciMHGbn9pMQxdASaARYaByUCJSIDNOW+7ZTQagqX7AKkAe2SpnZ7rqTHhrmUkIu0wL///2PfZtX7omIBr0n30gBjqzqIN/+kAsIzFMjjPap6u2ZiuOAgGyUBM8nXRIkK1V3wnz8HIzqQld373beYE8Ugjt904AGzhsnw0cDYSqzwPyFXKn85oAYqz+NSlzx+t66roGpKE/L2osAFdGErtLjAs4ssqGnzOBfSmZwEKozNQq9oKf0+ZsbWHbj2Jh1SnhpdbrdRnoRhljClab1jRbW7/NMiw4PYr7KSSARzEaH//hHKQfpzU+uXS45FkXjW+4eX7C4A9+KD32UEHRJoBGFDtYNzZU/NejCv++VrO5CzkdSvGTc/xFvcViv3cZUQ4TOC2AoyFivEl2JF79/aq3oW24BPFlWbAJjfjL9rbz2h3oxAugIwHXdJVlx3S8/PafeIYUiAuLosnS8ZXvLipUH28vMrUf3wykP5wjZVg1oczPcgAuu185EvAQP74BiOPe33KEB72nPR13cpF5j1D8YDt79ANbj/rttCuLdwKhbiVLliLwCRPliyOg2ZmCdlmDAjN70p2rjvb+gWGiVy0A8i7MRFMHdHgDjyRu6n2XQvjcF2DEL0s6zCKCCRdSHEB5+k1gig1UlAASRhrUE705VNTWNa4M1tCR/+CcXXp8b0vuICH+T5E7/d3M/XaADAI/cEQ1qKCOICIq0C6M21fF+goTfVCzA+3CJ4TGg2V4rN1j58jgmDgeWFjUwfTS3DUTm25kD4Zg5Xi2vdzMzU2L6gXy5wMz8nR+buXEbtG9Ze82BMKvo/inGBrEg5+vSLuXcQo3hgKlb45cYFb3O+RlYg1dzpC21JdbDGZOO9JNv//7q4r73Lj9XE9oR2vQH/+aLTn0Q0qEvLo0S1qRNCGFAqHt96mxkxthM6Q6HRE/G/NssBsZNexVjVdduYrBP65Suv+J+caN9dhBtvrW3qyR8JetYJlgMMS1JnhMwEMwAMkUxeJKFi1h7sN7IkICMwolHN+8sPoUhoYZMfXVvPBv2L27GPQ0gN3wJOxMLtkdjD90OW+180cA4LbJ1OZolir+uVjZibRuOx/TT4aVawmLXq3MGdWPR5kBi6jDqZ9rUsd2Rxhb3KlSgLXrvTo6iQ7gTjcO2sH0XkT9ohF3/8leLmGyIYlfhKO9MK1/Qx5WXjo1BPqXo/d93B3ZHVV5gKTSFrIzfDKpNZ4Uxq+GCtePdpGpultjHP9m3CCLj0/gBPlGY3P94YLE7oKH2Hbpt5b2yY0p6R4Iv6p+01T0XxtDHl9XmnaOIuJzHxI/qX9bksBmiMjOlXQkGazvPXlxZnmUfA9LW2QisS6eTCumha+c9M+hk6GRMxKLVi9w1IWxxMmh6WIvb+FlZjHelPs4WZv0Wt5Wen48f/Y6/gkdghzPWCjaHrC7YHmpCjrIAlqGsvNFI7q/Ws0p0QtKW9uUtFsyZHzNpa8tptYfs3bq/blsFdW7mg4hcITn0dPToVACtQmcqnBnn0hi8a1PkVqpW1OUJoFv1ZGetNtpaFBrW9AwL62lj/r8fpGva9o2PKh3FTB3I+TP6SVv2JRs1r0tmP+AYb+J/gJFyMemXpRqwdwXi8vAB/udj69YMrechSHH/79/n+4ySWNEybnrRDKWa1T62w1tG/1HlgVmvp6dXP/f1t7gjr7mDAalnowd04kt93qGgK1XN/XNX/qnw6tq0lzWWVjMtA7kio7X/9fzp973jvYO99QPZH7jj/076KUQG4KPLHRnlo4kdIdv8iyl3Tl72lZBJ3cgRhR2sbiVPMQ5tR7mWQcKenSoLX/s7/v1JkZO/MMaTVjku+KwwiA6iA4A6VgZwxXnuU/++lcsZbABz0qgMojTgSDzOJ9v0j75vMIDqYuBSXNlQM+3TbE0b+vx/iGHv+fj55QxneHGjfu7f6U/JL1L/IU28QHyBAF3Qr9/8vJ0raQ74w1eguK3D1bAQDpMORqhnTdvDk5Ffqlbin2BRxI/AFFJ3JLRztAv95yRqPbt5bGLWfBIOTOAMZMgSHbgZwtFLfiNrOECdie7XXrgxzHE0XbhVQ6f0yx00DlGNaZrj+4GreJmgOsUX5WQfcKo9MNQfG1f9oK4oSOH1slHbXhD9WhIw+s7z63QzS+t1dhqMp94KJ8FiUOtk2LTuJa/TycHN4O6vUhrnwDokD+vDHvjRVUyPFNx/+5kPBMFK1L1jUTEr+GekNyupYd44/g1eR5WruKfvjYiJtms/EgtJv7JgAD1/QIhl25qcivWy20VWiaPaKW5Jlp7e3e3+7A+3C49KxJS2WIFgR1A1QHT4hGD0EwDrSEpLppgJQ2//7/Xe97uwLQDe0eSYEDYXsB0tHSahEkgIA/yln//nP/QzpvzKn76wKE2VN7duFnDYtMERHKyYbPADVVilX/+6DLnzcwR8mTxRMk0FrcIBh+F7486DLKp8i20ZP95Wj0SfQGMnOzCL0lqAX4YBkfMvNSjD+IZ7Ir2TMQZZ1jW5bO5o675wWdqNmIC6Q7wbKG/yUBRe0/GkgDTu5Q5/QpmppRKeul4EVEyFrpCKnFtIUZCKhgu+7F6uhnPV3wCd5834p/rzpKUBwIlvY+qpF47SKsrKZzmFWoqBTp/J/cXFyuTRf4yrmpVK6+6bu3NIODzcwKl/P7AgAKzuqiMip45yLLe5Ir3NIe+GmW1pkF8iLWrjdYr7hrLZsv8mPjuQ3OQp/Zcph/FXIxNdbLiLPiHI3ZuZWxIn+zCDCfiL8SNKDeXegu/zf+OBmF0FKvpXfkZq930o1ghtZxOQkDXME0HW52vd3NeVPIC7PA4F4I9gsMf5qcrqEjZv4OBbP1aaso2ffybnS24b9PCycDsse9Lit0/9/pT7XR/Wh5fHdNXUkwkFBwHfks5lJA7/nFWJLRlSRulGxNIZVeYZLXEgKxXNWKajXdHdYGKCqqhNDiQnE/QBrGFSu1KNACiW6UKXVNx/mVmQcPvdKBmRVtQS/Ht4gtP+VuvhN4D4TNoSgGObqdZaZgBhNivSbvvx0HO7b7/wZGeBQDGEA3XXbPfzQ2aFUVWp7wxeZm9M/GHJP5FK/4Q6uCP+kHtVwmIftuqzMlAHHlt8ouWgUXJhiBNQoB89UGQORrx7sdXXLsDQ2ta3+uCMkamC38C2x7TB5uNkrf485xsXQuT+k+sLv0gm5cT2A/2+3qEVExg//tdqkEVCK6X0P/8uUpE5dDM4gIaaYLGG1m4FjDawmRkeHPLkv5E77MlWjJ+ufGV3e4KtbO2Amv5rbvd/+oDWgIQvX/3AFjE3oIWcVJ2bWpWZTXV0p+NnUjtsnCrzFkwN9A8J7bPfyxicQWu/4pd7dcbHHYGW4veVTV28vqccNb+7ztARt59k+XPk8qsFlUXgE36fzpYsGC3y7AnCjIK8I6y3ID73vKmE3In3w3d63AHHihu4jBs9u2xMjupYbOQIUBtn0X7/PqSe4AINjtgyGrcgFa31G/5SNgJrgDlhzPVlFY6dcob3Isr9L6/8f07hcovu78ipE/0AkBWJLvtgNo/7AIwd7r9aqD956Io/P4DL1ASVR7LgzqvtEkl7UOluUPZ5F4EQKa+Kf/BRMltL2x8RDV9HkXAIgOZeLsXOO9KZlXhsQHibmRSbvJymLSGCeecaic1fw15DU96myvzZ2NSef+ywvengBwEJM36vvwJRRdfsC2U3kmfAFp7SQrTYpr1Qn1dvRBtPofTLbgx2rSXZacv/8dwd9S2e5TVsqNaCAtINQWxxaauID4NUWnIoYeTpMZIEmXwwfOCsRWEFuNo/DngJd9t123abjCuLnRnqDArtwc1HpvMv//1CjCLbnvb9y409oRJQVv3/T//zj3uk+Ugsd3+4/D+W/9NPQueiHX027+6zvh10RDj70P6fSZnLex+fHTbDSNwsuJNaQ5Qtq9AL//0/oiB+WukpoCMgjqUV4mWiGk1PW0J/7QsmfaHfvyZmSohpaj1KD2Yzs0MUJlkNYeJG5mD4bVvRiv30EJaDZwLYQjjlBuaX2PdxNiHckPqcAD/3sRjuAADu+Tdpw4H2psEBqcA+5K08YO0QPyPQoO482B9lxxdS8ed7ZwXhpTt+mD793f4cE4cRls050jlw8SWNAxs+u7anfvy8Zqm2zQfP2jb9f1Ea/qm8EaIGqIRj3Qcrkq3gZbIeDSaG2pOwy/p7PlMdx829PXVRP9/JzjXiQ8khbg6oV1CrFm4b5Qze33P3L9WvH5unHAEQLWOzeqaLg7+0XjNvqvLhYxUKwVE3BUpGSsUQhYu6YhytucqGpVYP05etLqx6d+n2HxBg8i3072dN26dFOy9We1Jn9jQxD0zvMW4AUkG5+ZcrUIb/DGnb4h4frxIJgiAppwNF3+irmBjOZGi/9vSAIaJTRG8lOMzQKeW16eDNygg/8Kevmg5WBWiV2JvkuNkoYC7WnRSpRjnvVZuugQZuA4otw6OavkyT5rS8r+yHMG0Db54vaKqCiQooNt7/jbsGg6NNYGJyzMwAl/e5EwaiZlyQ/XQBmi6Uuh380Ayp/gPy1kTmtKAMUuuQtnjuuhg1UWsZDrOG6KwIHRLxLDC4eZEgHG1p7WIYavDEzd1It9YZv6+9/kqmFHRDkdmLaxhAJOr7yyH/D8K7R6daOf8v9+7r8Z9wGkPwdiFNP/TTzGTGeL1/+90t5cukzvZ93kWU5d4rsBx0QKFjNrKSBhYEZBW5i/xaWRfq2Hfegnfovft+AB/5oyOj5e9fOV/u3PMSKRZFIp6qtrGWg7wXVnqwMLdWo/QP5wRmNnAJqPdRb7Af3ef4anURAP2ENClAMiwgYgzfsWxI9+IST0ERxgs3DkQHzhj49VAGOyI4nI54kleXtJHpNBANFoc2KAJlMG6EbrF+gChc3cnd2u8HvcsMKKTjo5kumQWJsRDiqELqWdYQQH1DM9qSjKD9KEXoQD17eBXAVMaxmCph9brlh1SgQn6LktJf/CNRAoDXcrwNQim7YILD8gyDz3cT61R77dPu83cXh9OC/wElvBdOt9Ld6QpF9J/FrZP/67yw/IMg879SyvDUZBK+keNI8ON1J914nvLgz3oGf6eO6S3K779dwfMerBa24duSsNpmAAezRhHNHuf0/t/bkru2AkoGju1eyY3LhUezwQPXrbAO5E1EPQotnX3CAE5O/sCXFZwghqkNcEYHPIB97xjhqfHZlmWEFeQoUHxtXMtFeQXvSyOt1W1N8VL6DaQcDVoGDZNgql8iyzpGDyKwWNxu54adAZEHRBEHuGlR8tcWPqw3DDOji9WkdwwS35wVZxxO4CJrGN4xALoyJf476CHxkLeX+GABMaSvvbpcONxE7LH5iPbT7ApTvwrnI/Q7BexdoR30//9Emmi6poQV1Rt3uOm3oxtaUWsnrrCmdozdnoFhPMN2Uj/xMMyDIXqRvtUWuYzesv0YSFwIYye0+uUyxozHN7xphvxvc+EABldLD23sdUWi/GOF2ZEXUTPrVbT7W2SO1r/9LowFObV7ysUYhzvc99WcM8V7Uj0AD1etTy7VUVPfTkJqATPVHbIUZf3/IlHsU1iw0ivXF8SregzRXS2eb/vDZ3VLy5Svy4yfY//s0ARqs7NRXEOIdDu1gBXGeQvBdi014N+y8P35nf/Qr3CdCmARHo2icEf+30d6eVE4Y/Lk7ffeMre+XcK4Bn9V6vLDUeSP48kPgK8yAGIS43VwJsYbhwjHMmOUwcuho+y7rB/mRODCsOmSyDLwLbBdSCwY9+JLALJmbUcbUGyoURbHojP68CYzQRUQK6iutaZo8/uwVjx8a1MRnkekUrnxphvs0N+BonjrE5c2C148qbipfTYTLAF+iUjAZwQgTbjAr39raSyhoTrB/wCjfVbDG1yZba6qmN6QMX/bPiRSA+x6E9htGKRzce9AIxlD4nPH1I01YZboFyFND2U8b6xE4q0RyNP9vmDA7wRCkz9Q8+wamwb6PdgSJF0kTi17rQ8dMBHvXZB0OpcCiXiE+tZa99u2DiJdX/SlXrb9ci7PKR2Zb359JD/S9HPn4z5xJLZ6Px+/lKlLdpPkGMJLap7cCT+BvHP6w+y7SlQjZoMEgtM44JHTJLz/+XlL3LI/id3mEDenyDB6/L/dL+8Vu74AcXngRhdugkRSFwntXwEIOljADN/r5m41noW8eAQrxI/ZOAkAbSL7+XKOtvNlMlndlAdEOwZULoU4++fVjevS3EHljBegHHZB5VX9QIvqwPsCHI+HonyAzFfTf/wUaNAFx+/QBEDrdAPfYBNe4eSH6+lrqhJF9pL/pyW93ue8pFKNId2AH1mdd/8gM8rBJfQckO38AJBrWbkwdpjvokH3tSVWp+itkkf40iwEQHOmKxHaqcj+bVaXB8ZCXvUljubEoKtklxsn+EtAz8SB+OaMQm7hUOUI3yzWDURDV/CsyMZTSSts4bqsOZ8DA3Zg7wa/JRte+91giaNYeVv3P9uuuC5t6dGocHlcYMBCW0cZhIhktI15HmHolxOK0MjshExj/ybpqw2R6RstKMsH78y95HCioTaj0X9vx1Q96Bpe0kmOZgIBz4DZCziGndh+2gZH7j+3xRgqireDPm7N/exJFYkUAceFBXcSJ+3jUNknLE404xnHhXroEtxO/teMrstb3J3xvWPvVDCByLiF63uoWoEfcBcDRiU3aqsLUsxWWE2ahYoA+GfPzgl/yQPmt0XdipQtggR3zD7V2jBeY48SYN6kZlLSxw8RaKtZ+Cg2AbWDi0aHBCIf5rngHIz8TdSD9wm76u7/+G4eBSTM6xA5M3ymh/wFE1NYRghlXEN7+7oEe24PdDxbclPSzwJxZBAVJT3jfBbSHrBFmH6g/X6Yt///rwHIZiyyJPLsIJsdgstgzerEGacMa4DbNZidd+I3cfsmWvtlx0okA6DlCBZRgUH6/kX3pO5Dmt1BRJIWSoXXYOapbn//wROgMgg2DxDQtgbr5Q0fKzf/x74avt3oUvSqwZM2+6oPAvI70BJHYel4d00KiP0eU0fnpQ5v/6vS4rIIu/HagH032mXkL9UVa9xnNQ+sfyRiUkbQcnrkOk+h5kDKYlrlxj4V+/NKZ0AwSZvbg+SfyJv+HIt54b+bWTV/r/iW/t/JN5pa8N22qNaTpOW0DcNOGkrsa6ENUAB22zQmjoyRNJvB9KysFjZI0dDY4h2Rmoz5JXlczl7z1EBX0ohxmP9T4hiG1Cz27gZvdBpfpp+0JMIi7ibkR7QYda6HSrryFp8HtLy5bxUarcaSuRwoNXnkmjqBh1jfKSOVymcpXc3EdU3R9Knpe0WnTkxbJn2JC8ZTN/IjeGamxIAKhEDKw9z1+Aw5eiHX7pJcZzlaS1ie0X0bzn7/YZAFzeD2pc69L1KlpF7qdCJIAzruRXLZxjTp0f2KM4lajC0itZqu22C09i0TkX3MaZ9lxkmfANK3B2thiLtU2AGa8k5QNuLQKxoOhmFiJWdOgnMA5hgTMCIfoMxbhIXhG4dN0QP8Bc54z9hoJPi6ddwjcuuV3lq+GAyNRLwTStkEDFQEoVo7uDa6SBx33oVxcFrOOAL+ZO+yjlgIQPhYVCZ5dAu+cj/6maXXVMj04ME4Yx2k8ugzHXXmWEAFk48YCDROmI2GvNKTfkYe7GevqdMY9M653nRlJ4pf1yidF8EfTxmOD/+uH7jX2u4xWhh5HY57Bp2r7bTHm+dpX/3/LqOKJAO1y0WDtcsUYuSaXSTTLXV7/+OJ1yyv8NzG9Iug6wbnc80O9ltb/952LFK85l8PshvoMhYbE5RXt/McXlkLrIvBFVeti/6db/I+X054ETGb+sqgBCDpYwCEcifonIMLU6ORZYFHV0GCF7d45IgB70APdSe3H9qP5He2/lx0AAvKwMUA4bw2w8uvgiUd6NC595VJ8eVMaBUeCzOQezs4O9/8CdxN16zBEoaAkejSeCp+kSGYByRl9ABALDeoifxAA6fkRocpj8nYPnCErr0qlB3lBF6rgbDVk1c6BWYkHKsuH1qQEf08XfdyeXUeACDYa1BkJTSdWOtxDWTa7xRG/0jALwEQFTeoNRsEx/8e8TQZ7ZMplyvj5UcGngMYo1eW6f6f7bFBlkSinDuqBwwrCZMU+YKOt+vkdYurunT6PuO1AMbIhqiZkANXRPf7wN0PtvTj41EyBjR8tufIOwACxlvJA5/GKRqVJQY2qvNrqhCoJbBaZBwFO8d8oHxExv5ayn/uawdLCVCgGEy1ezlAZZQHigouuNFLqgROAsc+nVDiZqtp6D82AEf5kUeM4ncXt6XGs2FrZydmXibdRQ2WHoYolX0174//WVLyT5qWsiUvbznhlxqHband3PNROKMun5TuKPONILiLczv6adfw7gTguGyZLWhP3c13iHQbIYVE+cC7RmGaJFL/88O5GsQAYLC5PozudLQgIZ5PwAwF6+brsAAQCJWJkV9S40jXx4FI9FzeH/C70SmSoHKNCULP5PMX/i3eqECB2QEA+B+t0eFRwpBe8rkJfX3KYbmd6XLa56tqBRMLd45VvjvB3frEL0Wpgse65jVWKhVEnw84Vms55YcunzxGZxB2VBAJlfY4dD3ULx2MEERtfGaM4IglHinX0/d96Gbu7660GRAEB6Enq8u/ApivYHP6qVbjFPFcsseYB6ixuiUckANqgzjcldRV+SQtxbRrHwqZ/I8CUZzoxP2/Z3fG1DXXpMZ6t9//aMQO2AWK2xsGmh6wrI8ZQTH/0bZU9gIDwtn+wNE7QwG5Fvtt4UzEFgb+QmwOwaBsns8A7x7h/2VS3ZtugJA69iCGSoIHSQP3sIZL9gdfQcK40mf/r/Qg5Uv//QGEFEnsKgvZbA/jnBtlBLD+h27ArMK4+SN/VH9PbyBETDTRe7tbelfjbTGQ5VvG6CRxKbt9UaTmkPsQIi402AIRvXv2eCEdKOqupFcP3cVnBICrRrRiu1GXdPJBagNPY6S3rDOkEVI1aIEjuzgYwqkGJ6t2zlhXRzFa4E3XjNr9Umnc0zJpcvxVvTqYKgGAVFXSLfgypPzcJm5pz9WluHHrjo1rRM5VGzY+vGKsbjbFYZDORImOpZeXXkTklMOM3YnI1qbjFzuaW4QT4SKugsMJG48VTlmTL9LcgELk7gY426FVnhzvXWC3A5bcE2e5amKUt6Gg7/d3Ej9LYzSY4Tm9bCEG6X0jXIiViO7vd4JR3JxwsbjJWs1uEo3AN3zmnAsD7YtC/hQTWDnETNmleLESy3rRoVhkcXBsYusXPPP4hV3YxTeveXYmT8BJ4PfgDkzIIoeM8tqtbxY7kg8TDyZCTp0TIBu12Knt0jQWHFO92RZXy65ZQ1XuD/q5mx4Kt0JVdOl0b6NdRMGCIhvjTdEo5gR8npy/maQ8pR1plRdGzUyntfd/P+98v/6sblhXc4JJfGA+MQ+91JCpr7seO0X04l/Wvw//TjbIN656+Wwf0+qrf/Hw6NbQZ9yvaAdk5Z5jd9//8esJzNNoKj+8KoXdXfjrIufY7019NP/DBDYNSOmZZIjuJ1kq0Xeun2JwyE/tSrWgAzuo5ND/5uC45gMeDKH9sY6QOYyWOG7R5GOEzBVliCUK4RP89A6Bf892/vpCtGe4J7j1G+0JiPgM+LklADMk2RPHf/D51BpKJzRGZpDcXYH/bsHNlbu2Iuf544OEQrC73RYZglA3NHTq+FSY7fWPjnTMf5YSZQ0DpGYY6crmQEAWduD/DUhZ3Ptt9VGPANdV5c/Sh6JWUcLCry9KBAThLDcMnuAiclgbqDxFBqe3E6+l0wEXJ3dLsLVtoAwj8KF8hMbNo/eBg9zSALttpPAOLLDWSGXl4yHwJClaDn4vP62Ii5SCqzXiSR+szxljQVlgiK8HyFYyGqJVsgni43R4fcnsAMbstgdbeCv+OUXG/JKchQb/pIc2CuljGX0fTv/TREGLtJcomFCcq9rmQOOeyeAWVTghai/AnvRyA8Jd/5sVDftX8loCxFxAzHEy4wfFojX318l7EwbCf/fLfL/4Ddn+3eFPp/1gFgCyoHlvK0sJLAvGPAPsQePOLIWi2PffppmooLADkYmq/BIFmee/AGoRY8woFN3D1rvQPmRbBK7IWgvo3sgrPMOkyzDj7obu4bgAzEn/zz1a73yBnnEQWIOlBJzQMlu8P2vQ71IBlzgKWfm96AvmcSofIDOPPc0G7FMQC/PtcPit0B8dlIo4epWzrjC0/ASabv+QAfRsa0EOH/9vUVlZjc/uYvXRnV3J7/sQXStHq4SvHfrkQ1notCHN4BfKYDufGQu/9fhGS0Emzj3+gYQBLbAhBLWWrmFIFmv36PgSDFmcVvpS5Hn8E1eMobnn43ir8bH9P3J3V0d2c8ihxvKmv0KUsIQu0/nrkyGRiwSwp95AqNHBhsbM0sHDAvwUdf4UjKNm8DrwrLN1bnDwnE2wH71Kjt/IYwD0oDMbfR98MReMobG76Ji8YvlynacvfBzZSy+BbishGyxpkV4nOpj/f0ZQTyg+w3UQM5orGEwYhINNb7xLGP6ftdzjNO3qcICO9to3P7Sx63oq2BdwOp+YQZsgj0n/XOAoAEzNCy2QATN2gnsTwdgZCBwKk0akt5sPE1tCiEAOH2Md/DPrN5cAZDf4iFyZVw6Yb/rNfQQDLR9me9rXLfh6HciBVDHiOiOh74p+ZRf/RfpAcbzfzBnkgHRx5HZDdV1w2PnHTeZCK7/7dPr9n0H81ok5tCKmxvMMP/2wir9jYWYOYyyr8IEgjXMM7Mr/////yOvr2WvCigRL9Z6bD0LmKu/J7BdnOKHZUdVhwiRzp4pHJblT/kFh57O3kdkzcun1B6o3+Ain7mJPR885dzrCLyMV4fhJkb699BTGqreMizA8EbfyKLUg8/Jesmun4mO9Fg3CR+a3k8XRbkEUeJAhu7x7jXellxJuK5dlx6bMFp+Pyqm6jbYI/NXiff9FqVdce4gnAsAzsqs0EtH7vcd/vkVuBRWHX2YGm+6Idk625+/3733rhgHm8q/lvt8JdPpDfuT2LbOhVv7ioA7k+lUsfFYTejt/XKPK7GyVYDjiUOPKzjq8c6m5ld4k9Ca4Jh6glA5P85L5scTlXeY1F/f5RwhkBFbTNiydw/DyWT3rXmN3WpDq2TgqroIHcrJPrDx3OgLs0vX/Gzf2Fkoy42SIc1qZQUmSNjoh29OVJ+LsrXmQO/KzOn+yewv2RfKx+v//2LsUE6mZV0yr2WO11E7G8dkY//1l1COE4pj//sfSgNTh7WMaTzpSRzUU0wY1E1iYDOiOTuk2+eTk097XVMxkwIBSNFe2IYPUP1vj78Q1A4PfgUB9cZdGJNOKr6HtFYaT5mI5IRA9vwZtSWLGVhrL0h9qEDBfjf3fI+ulrJZTSUfb6f95ehPRyKe+2bHGRG3jgONmwxsUgbR7Pv6hsmzkrvIg18I2Yo57NIGE2XrYTdjNWbul15oCn+ebsHU+D/gDQOM2GcnSB2Jsk/BLTpv8GxcnVxY7u+jigRVVCwm/faEaBjG97nPJGBTcLg33/u8+1SZBSbdwDkAkNZ9onlji1sn/+Gz4OAxjiR7l2LPAOrxN/3vkpqR3EvovJiMQd3f++u2EeZ4Bq8Qivl00GCAwjiR/mcUHKhXZApBy2E6U90BRYkeYFJjsZrz745n0YcByx2aaqPp7IiAHzN2H8zl1uL390vwpur0HCywWjRcISIrW4ty29MTFX1YChCTwE1z69a8Gu5dQhfAAgpKqicLHMcDfkJNBGBfdfBsdDc4wcsxhKX8UUlt1VmDGybyat6xfzAAY/p93Bzd3c+1LU/wRgW8Px1TmPm/OUEkDOUNyZWvD8boFdWZ3/2kr4XLzkx4FoPJQLD/pnFTc3ctkO4xzqKuYxKXfB3LmTu+EDXoTZhj9NJgstY4muZ2J07A+KwGLbnU1jFe4mreUMJUlKHld5Su61jSSrR7hCV/mdsdIAbb5v9uSCJX3BfKdky+3+Xk73fXkiuWBeqBgFE6OYAkem/IYhRXHVtRcZ5C7n1viZft8Xf9QczpbeuXTjC7Ot9emJgzLoRvxSTAiSYi9AbZeDe6R1X2tlmmckdSs/3cwRt2PTNRYwzfA3rHlccEAgq0C0oq2VoNsN7uzEGF3lti7zhqRJq6UfHAWnpP9chsbYfQBlmkVGxPk488EBBmAonQcvcZ+5G/b3ewmuqFB0MlaiytGcp4D+CLdNy7Re/TJXrhqyrL/1oeBs+8AxycaZHLRzGgSho9bBmN3s1//hdbiNmzlZbm1oHclPwwVrg4QrtEzRkxAXsNGetgkdvn8g44YjHv5L9/4QDAEpsHmq7qV7S5dt8+PPAKqvMQe2/pNk/8AmhL0qsBB+GTh8OhKnUayjJgXQRba5iC4QXoNrZ/7t6xf9+uaqtkBSE1ev2ytkpaMK6IonK7u1RcepntCreU/IMHTO3R+4G3gAph0ydtr8SLxQb7BLFnW3fWK7usHFV3seNW2f9NZt5i2RKB4OOlbYsqINLwfJBzPIir5nzj79XjItlzEclpCZqolAaDfNIlqpLktZ4YoyxcfG/yatYGuShipKdvNRKeg1SySh/D8HPb/dxuLl3vai68zCFS+VqxUS+q8sgvWpln82fIok7iTjNpBUjoXWuNxcrsilcvzkj5dnyhGsOkKWEqGWlplVSQi1XGz46vzFRKfgKmyEUZuR766Jcu1x26ew0wXfBJ4nPJRqTe1PzrBkkfvNK3q5cB6RPCYPdCiJoQexGQ7BR9k5IOdhZmJiZka0AJqPVN56obBWCRlocwDaQHzLCPl/Ko32jNqkd1AaX1CHKpAp118WhinexmZn//+M7UaoVenJa/WDCIWecFK7JcOu0+E+mHCu/3E5s6EVHkH6P//5IFOJHt87AypMyEiwOnecH0klgUXpJZ+GYwPnenf5xg7JXHljUp6EwfHy5Ol3eQdZ0lYobJdFGixoCG5b7yPJhe4RAQ73Lu61NgSBMOn3oDGOmVXR8V5vjxfT/WyEjq1/L0+93N7DraDVjVhcmc8P7zgCUeV498N0oiAPmX0BHqe/B69QmD+QfFyOgJuO5T0n+/ICNbfFu79Hd3ejuXgC7cgSqWNCBGQQj52kdFgkOQRxH4QIaX9j44d32JlErZW3+cfLsnVswUdvjBHg/XsMNXnx/+kb27znyCX60t5PweL90tdyoB9Pf6S3FcRVQZSIm59Y0BndGyW/Bc8JRRu0g7k4e59nOZS4kr++1L855WHDwvWwxffoH0Bkt9HIsjn+g2kj0flY/4hErx3cuPbgdXzIWwB9sp0Iy66L/by48IJ0vAZaZcZtYPjcSW+pJsWOKxMvMneEESBkUr9IAu9Cc+eQFEwWd4aCqAN6Bw6o1UEkijMgwfaaadbUThErKFCdu8pJQRWLsRY7afqXG56++vVj/7AwlxZ5CKthsh2Rf74u+VSRgBsA2bW0NGhpuCJ5jSHaaD7vHdyIJuTO3cWYkDYET+p/w+Q7Z1JrGwDCdMpggP20N3pBq4rCvH81oKqBUBOG2C4CElviE1F8SaEUun9Y7p/ilRr5g79LdAy02X99rRmGDQTG+37p1X3C+42KeWyDBIPmCqp38s84ukl9vRe/WuNCBbw8pQpoSCGAgdOKTKGabAwW7TX9i2/6eGOT61SutrjVB6hhKw02Bv9I1+w80lq/44/Wv0qPF3Vqv7fkpCf/RdWBV0ZPqa/30V8P1TyDBX3ay2oxodx1J4yJPeP18pjQ+PsvECjMa3t0/6ex+IUeHrlQGePeVEgCTjpZ1n7hBY6Q84c+z0dzMBAFY6PWY9aITRiOs8L6M0f+TtVbTwh9pa8XSlhJ78U+DV3aSqHTbDs/iIlcViHH/pe4MQ2aTLJNO6SPO1KfQl++b/lOjjcPtv+7/fBRiJFWRrhDgE2v1+8SzKovY3oHnlcN0FJmba4wSmZXcf7o4tXEFPooVTqRoWqE+IL0bZxO11BR6ksyrZxF7nV1IiVvE2GXahehDMUQ4TSJQmbEy9h7zjycsbXlUyoSs1m7Lqai1csb5lh+HIK3+1oasf4/GaK+xqhB+PmE0byswNTBLzg+mVodURLMiZJhkCFrVddyAgCBKorUQ+SCIvgzC0LApxMWp9GxA2pdqoV21eG+9CNZ1GH39t/bj4NgGBEdHW9cRYsE0Ict/8YfC1Nx37AwEfqa8bWJVNfoVcZQf/X3hFf/9CzOrxzkK/zDX/YA98h5NbxNhKNfzQGZHjBArdxpGhLBaMCTPcjvdpAbJTPzPgpm7jo6qcXjEofTotZl+7hGYQeZX0p8cfW+Am9Gge1oMce30/tAdQl15gwEeU9a2QFGTLgTcBNVmr/qxR2d7WOZUhZ3em7qSzd4QAP1kRAnKA5BcAHE4ibhwzBoD7JvRUkIPqGUJi/wVgE1eEfzOY/F3cHSX3TZvTn5at06du6O7uwgqDCC0+lGTZRYMmzdoN30k0voX2S7HIz3YSy3HnEJhRSrKe3Rmr08O0V05s3ZuSpjTGivbbXnNyHQNdffTxtMaqo+0PYOCA2CJBYKrsYpp/xURfyxH+523sPo2jkWjDCO9EozQv7eBe/OVaVjtATiLPYIWEgPaTVjEDOaNP4BmGpIDpKZF0pINAPSRljfcRfcYu03SkMMciRS1mcufsp6tvrzgiakKxgiYgO3e8ofFaVgvTXLw8JWL9kVbRTLZRAYnoYC6kFscB9/0RaoQJ5j4Fw3k8D7qh1Re1udW9CgqBl6dFKCXE1c5pjVmFcMe/X8v++ju7pQ5lHVMvIUvrQQLQ0qNG1Iu4WjBZNQAN1yqX4z9VOMXaJJ6qpl6UtU9Ai0yWLc1qX0qqaIP1OgiPknoTcdBDV11tlGTJLvF1rGucB1zF28+i9u16i8Aix2BG7J/mJ5x5kXjq+cTW/lT2njmSgEEgJcMJ4xak7cjfADbZRQ/cYQDbW6zoYDtUxYfH7kLQmlwbbaLnm/OczK5Bwh3wAM5yTIDc2v/9+NZmzAAEATgACAIzU1xxzjJ7rtNng8tzZ0DhaT8BPKP3uA+ME1qFsvc+1YZLpBeLXYHjIFA10DaK3aLw8p3Y6dAEMpyJrEVXTzWqp6q16sApFDBzmopY2lK0/qSXPiC6QMbxmaOL2Tho+od2eoRUSLVVt/6fwnjUQ3ff5jWnK2N8oC96uKX1VppaliyeW2mN8Pfe+vVupx8/5sZ8rxRgApQzdEKUOZ/SDg6ANpLzV+jQcPk8kevRICVuvxHTByYejrHuehCyf4N6oZc8GJU7gtdUtQAcJQ94r38WTKefzuX9FhZNESSUyLiXjtVSPbYb4KDEJeha9PPJURX00YD2V4EbzGI0MRD+rH6ZhI8nxq82Nz9kfJFrfcy1nNFqpjN8qBZ67b+45kpjWALgOq96ouWk2LqZyDez6rJmHT9P0q4vvtfcwa6TTfU6DMfS5YUdgY7pnDLTk/TWV3Vx3k7mBWrYV45FWaNTi6ZBxqZ4rNW4K5q5j/auQ99m+mAyPW0H9cr2mvWMPmmna9+u/ps/RJ/FqCG4ApoHbZij7X+3QcH5J67hRTPMGqKlfgxu9aajRAuHG5wKYqoZtvY8I2eFYiHaA6O5y0qAxyMApfmCXbr95Mm4No5ZY7wLCoHA8UH/E913ZwYZiptKL5ggd8BGAdZXjc5ntFvbgq8fL0Q3bc+zRTrwmuXmQXu35RymISRlr5kcfOyRkrg9//+e+l8bQIZS0zK/gx12AKcLfUpo7j9RXc2/r5UqHUWEfQkoTvV//17YcuvDsXrd78HbAAqawMoIwlfx/B1d73d794AdYlvv/tCkg/aCcavoE3f2gCEUPx3AyhY/Q3QTC3SeEH7x7swkHutiN5Y5EkGSXULgfIu/t4O93kTu7Q8AN5UGux+8EVYPyQ2FvnZiQBqmw71SdagGrSgIfODuQjN5EWt4zyGjaSgwA+OoiteCtoof6eqhD8vTiwpJD32MBkJZYzvy+NszKInI1pMgwffcx/6TPfzy3Mhemfm6bWS4rUVGPohIxEFxZV/6U4q6ADJ1bb517OGA6Cg2Ml65Nee8sZQopl1W/mz//A6Istxrypzw/wrWbeqorqJKYXmOMVFSkDtNEqm4ju7lrUhZHxSuMzm65dqMhQGKdRndARIG++HKL6WHevlvLk1AVBl0S47DVn14gObOtLLZTRXplB4jkqxjPf134vLF7vatJd0A0QumXyYMaYyiLl57Mp6OL4uNPhtEIPAiPoFDqWGTIADaSIGA5h1YTYf7ojAtYEKP1Hsmgiy8uZaB95J6DFFjbiacgGGBIN7oMttm7DvXUAkjZDABeiLZBuuGAj8gUrC/e1gb6kdNGAIAJ4k+IFX96wgDNUJ4oC7K2yWmK2TiAEPfXwRUwatPmAtrjR8N9C9XhRx5LFN5NGQM2uA5kDJIeFaRHRmA+O3ZWiRcn4uiw26hlCAUBXlU1+OgahDCTqFT/QBkq9N1LDvZNTNHEr6oB9ptBDclwE5XCxpB++dfpV7Bq6mBd0cu4veMjkAuvr5OEFRvHNgVOdp5pkAXb/yNEdXdTFwBOwyEKeKQJYQMqGhvlVSIC3T7yxLmcdeJXW3EHp0R6dG17QBwT4iPgdeR+BCCerbzEF1tDidSisi8hBYHRRM6ZB+Zj56xv4Os8Kk41qma6923//J/XLSMI32phAXYUplYZYgvUAor15MC7aAXiDPEsuPIviMVblo/QAVUdOgdeu0BkFJ6do261j/6xDWmdAz2RvCORw4kGwZDVB9C9RbDy3ML3LbGtcFmmq9rm0al1HP/67yADrGhw7nxxqajSCUZq0lXlO1zTPxcKiDuimtcEK6DIS1tNJp0Jhfn/68ZLlg29IlX2qLI0HnqKLPIDesWstClWCqdiLP1umqAyy6SWmTYquYH3W7pQc+EjVDnr21lj8jf3JJLyZR42RUx+HiulnWKIdndMB33fCXH+q+9VBv1fXh3j9DL39VXtxxAACAZv4SqTndx6rUx6yM8z7YaQGMITS+x2Qrc3No3xwjjZl3OTAnoFGBoPoAZliueVyHIbf8Z7j1HrF3YFkPl11HqQ/YnI1LsWMSDrYzClGGufWSYlsYOQaAgdug/h3PAACHPDcilwsc58q0sO39F39Plj3nwpbJ8XSp7qkSG4MYAx7zjNfEr/Xfv6wvwsr/3ZKxm3LiDnhbqP9ELlzURucOfv9j7au35N0oZ66yXoBQ1LHzxPEBF49k8DPpM0eR9XhS27X4miP9fOkjCeNiarorZa0te7QKN8TaGATdgWxbvvXnuGWe/Hl0bSBh3LaOiO4NYo+/937ywjUT7MP95GG+iH8Lqi3f9A4n063cv/2W7HZQfr4x6fxLhcoRaEnEIlp//2RxIE/kB6zcAx9FHy/ZH///7WX8GLmYL09tTcRUGjk/++107cL0BYSk/KGngHSFnqWdtgtn0bWoOx7TiZVsO18wdZlA7Ah/xXlDGe2yMlG9NMoo4KK04AVGS0GvKI7Lw9TkT8gw3pGT2RdJFIvcW2oSOv+h61LA0tMHAaUyP10kuxztHdrJVyUwfksd2RbDMIEcshWIFnnAv0SeJt4tcH+HOGI3VZeElwBKYOf9v+yKpEIgi17bEnMI0WC3LlyS16zNDjBcBQ0xv3b8+iSVWcQr/a6aVNIKTpc9JybHSiD01WRoHUX4LHGOG/bFX93Jwrld7gBnAoo/sV/WiwSZ0PBCxIfk8Kltzg1ULcj97UZFHCCUScf4hG2PkKA1kzuSeYXBZNP1m7mRA1AGOtrpsUyuJLpnuYTDm/cA3cOg4LFxkFnJtmJJsJiC8STH3Tr09cLciD9512lui3EImx6zMeXM47r9HgPbQo6N4C3NBzUuZy4jbRLJyU3/39P/3jF28QMo6ZZ5jqYUOR5MSReSWuCOVK9AsTFa7/x9z826seLiByy+kCmNo+1TByOYm+3L2dncnjNnprbhv76M3uUj2G3OpHMeTawDY924NoYq3pp8E8F9VYFgx4wC+CaRYw7Omdo0T0hmy1QFByLuXs7MoAWjDdfTBCDRHywotHe4BAG+toolSXdhCTCihJuIjomarEjRQfXNGJYRBv/vfJNT7crXQDUm6YF1lPid24RtCO8KH66Vaq7iLNHhR0wgtB/94k3eNobIFGk9QzO0mDHnGcgrccFwXnr7T+ARdx1Pcg84wcgxHAQjQUeCjUsM3Rhek8+/VXerodJZ+CGE5SzxT8Awk3ouYPjPq9yZQmwYM1TgiydcMrGFX8FFc2g3AAJNIF1KlYRvreYxa3h/95Jgg04P2sX+Op0Azl/8y/zbu8FgDvfvW2xFOK3KiDbi8SwhxRz8rePYZ1fAI7MJtXc3X1GuQ5QQfzf/MMAAK1iPhN+4D9G1MCYFSU88fzUDF3hvoAcDm+xzfgVIGH+LyH/+LadLtobuAf88hwXO0vwjw2HiV7hozYmciiJR++zBckQMmSuiazMMRXqi8YNnKEHiW/yXYI+wcNYTdnP3nHFPBzwhcakWegDq0E89dz6/QBcL63HfzwHF2VRcTVYAZIPl+dWSB68Ptr/98eNpR6+J0Aqwy3kPvA8QsSg6UPwUc4W2XE/2NwM1Lf86AQcd+QQCMkXsD47Ykd+L8LKg9ohOvTFv3c3eN7jUVjIgrQF8x38wNplRAMeiR+795Z/nGBWnAgHmZiizBLjgbZ6wDVJ4Ckn/51dAxMygNZ66yVLno1XpN8uAZEzPA6s5e/WCAiqZ2gABg83aoKrB5sFv3YezZM+PzSujoeYeL6IPLwEJP9QEcSeN1X6eNe3rCWmFVocTmAoPTDwl7mH9Z0/fNMywUPpi+LtxK2h62QXe+OdRKmRg9eIl5l2ecumfGQJ7zcMeTiGN8YYlpj5ov1LRIIWo6dTD3qD07goH6641O5ijK12FL+BNhLZycxmHRUNtG4LW6twXlS6uagKgpN1eoU5LYORdXmQt3nrD9+2lUYtj31f+U/CUaq0urmWAMqegYONtSw+o+2uzID8nRsqdBRrp3Any1R17RMjr5d5Lhr1BgrSx8JPlRCXClv7TSzgMbshQg+o+X4lPgcw88HEhjW1l/AAGNKFtM+aH/d9wvxx5WL/oYMEkTn1WEpNW4rYV4YN+nanerbrRTwRMXgDVREZh7+HYZJ+j9XDHA+uGriTx4PyjlBN1U8lsDIbhM1w3CQJA+gbYHPVNeTS34LZhc1uJuJO9xyTE6/rmQnOxXa8GGXOGzMCpH44fZj5whFV/ANV/zhjGwQMPnw7MJ5GcgQukfc/GzWa/yvItRQdTP639MYMsfBAz2VAvZYLfdKXf8SjccLNIDlGNXqbqcbYJ2ioK+TsxWJ9hsgA3YImWl4FgVsXHbVoN+oQrjGNNr3hraYSv/+6c7g8wj3REOiIwQ3TajQ9NCWG9POMGrcEqVgDjG1HftpU+7k7tJ2U8Fgi/I87g6xWCj5IZRZf436bU8K1dgYymiKNEF+GcZlLTA8k2G/Jr3X2V2AaMEyT/934kn/XL0ulrHQCRnSRu5yinvHWvdiXC6ocgvv/DNf82ViA2B3wMLL3zw6J/6WHNjbbdukMb3/Jv/wIrZqUuklpUiUXijsFGjv+mj9OEnCluo+106aPplQ/KnzHjoM+u/KEXCfVH/6/4e1rUZt318/V+mldEtCTXbi51jYI8mk30wKtCdLJO4Fut/qJ/1icO1m2bkRPSjf/dmFr6Gs5lzZBZqJVRk2ODqaLx2agkf54cwFkV5AiptWjpmG1FOXHeab9IPe1h118VsrjHaE89cZ73e6wkxWX9LKCdtDzmDM6T9KjFbWlicjuk9wuqn2Bf2mI7ZU6q1TKopTxxOHM53D50OMjjea7/TMgrv/+9ae6Evb6+t+JLpBTtCXotoaHo1Pac1BDkaivqb4DVy4z9aAyQyoPrnuruB1qtO6joozmL8aZXK3D+OzK8m0zxDOrcE6qzr1VNCobskYwn0emd6F4Za44MbdxVXE/OmoT7IJJkASHEZQNMfN+lT7KpkGZPhZOxkTJIoDnDPTYKzEFkO4xA0dM++x0WRzOesAQyr8Wt/Zv/8CU/fmVlUKGbDuuoIriUivJTXpKcJozFqO4Ty+bdTVuBteo3GJCkh1R3CpsBuDC+9v/SkCQiBuqo5QRJr893YpY2KB86TFYkSI963TrYvhut/P/hI4+Y9dttiGEHOf/xBvt25vca26H0/CNnK/GGCRB3JmhiWXKwA9VepjwVDRpou9bGtarR1saAA6qGbhy9DRoF/BEjHYXN24YU3/qEoGjUMASwCemENC/jEjeCQJve34clIGfDuO9Pp+uihd9zXV0FaFJ1cF2UEMJSYAZTibmDtcDlQehqrPAn5FNGHVukWPSwhkvNKP8OcIB4g2G08yIxX36KLi83EbvrMGu6ASZ8EQrsXmpMC+QySw0hpL4SYIZHHGKNiB+CaA/ZySq96aUfAACAE+ur7/Ishdh3epmfgLk0PzC1wS3WmFUxr1MJRaFkzkCg3gWdFtt20ya3XFxcPG93rJAwur9cOq0BFwOmh8SJND84NGDui6Qa5pkdNmrfg0dhRfwJHdqjcicB8J56g3cFOj/NxA+K0dT7pp+6K8Yvu4AsnC1sMw8dDjh8PVUHnoPkvg6DJImFHmCZtJzzC6THdY+0fVyvFy3Qlfy1HFp8+++4OGt/V/Thm4oAiz1i0URZ7ugh3MbavwBNkmg/8S3VNpm1AEpXhyF++OYwwlJfn4UI7fBoafAxiHIDRTfVhVB01C73iQ3UXrGj4U/4OArBrnrZf3ULEFkPNZUMxPuz/lTtY0DohIY8L+CcDBkR+2Dc1PQA+QYpGLmHQKecvJMORbuc/ttweD7wwfWODZ+n4vFy3/yELFvxTZpDa94KFX+CAE8BMwuanb8BR1cQQSRcAo8aAJY6/wKrI8wCIgv96LSQnxQzxGAVM2e84yMv22+s+9+4L54Zoue8B0KOc2K/PiJmwEg7wFYZ7A1UmepTAklTevyYAZP0inwsROMqmoWJr8cwzC0d+NYfEGd/0/iL8FdzEihn8TWgOiRoAT4UvwNwDq3HxZ8Inc/cAqSjBiUscs7wKWbb+5EAyc8X/3NonBzFgTg7GgYdxJd8KnDWcskVZsZXqDMzB6wvWfw+wUXRIi8p7SwJgjITpy/fj5TRRgd0o7F2HdS25byyXXHJaDVWv0fE1Ia7HfFTpNGA/QvNiOXymAm+U/thTBSuBIxj/XAZmDhWOpvW4W0N1/hd09nTF+IXKTgzsotGvv21TdypZFcmh2cyqMthT9EcjhKiARXAE9dNZ8xP4DS+izQ9trqRhcX/90IVMK+dX8+WmYqvJxs62spXJjSOkgnCNul6n+vEnSb+L6fzyJNtkfeBg9Kc3NejDJVhUWZR3UZD2UN3hASHnqN14fWwsHIFAGVTDuH6R1vB6uFFCVnxgPJg8JE6Zsxvi100+tyW7kNbrq7bGX8KG0DsvthHfhR+7Esb5u1920vaxvTKXvWLkeNBvLvdYSMI+ar7qUw2xrA50AQm22zpxn9XIrsyMTHaTJH1CcMetkANaw3unv+OYDJlvlUb2EgVFajeg9zp2g6q+9LoJFSYlXobyU+2yQy1Oe/+zVQXDiM40yUr67Tq7XI2YCUsVmf6hf78HEA5BKq5AYMEihqSvISf8b0LSwaS8dFtwhCr3hoP+Bz7sOfDstizY0uoxiEDsgFJLbpk7i33mLtYGCwm1YwvMwJw/8GfeXEd9id6o+rUJKjTpBqCOzqKAhqrZkvpLWBM+ia7IDsy4oTQYYGlVtTKxZF+TBdfUMTwr79jQNByCQcE3wcVMfa46yYR9pzUsRHmw1eDxKpnADYlXL07tXJerzlg7jWOwxDW6Ua2xOGz7imW1Uu5LDV+u9yrA5mEcuXngwxf6stG20mnuxwb9jtoGDg9curVWW/9f9IUp+KJ8LmZL0v27CIyw0MWengx0DrEyddLBVXHgVAiHIldkRn8Swij4wSiIGGgSf3Ko0oZ81MlrjtLrnzWXT/k4xV8R8itO8V+1pVlj/yxGZniz1+iZ43Sts8Zz180L5c8udruJYTdy8FHek/2RHBgEvwYJ768eXTfZe1pPmweVAMW/g0cn/wNVy8mzwh5lYtKPyJLWa4LoHi/wscSTjtZLWBlYGfcdJ3Z3ewWTKef5EqVaW3DU2Fb2Cb8kaNpMkFTOmXf99xgeB0FKNaMjnOvPP9e7D2kjTZEMKirTPvOS5uYeRwo+1dga07zj2Rfj34Szi0np6LrYOkO4vjo2047gJMZjINPsodV01IGq171yQbbpeRHQ9RXwjWZJzJErkwjhm3xjMzpp7dbkFsYqSacmPD3t5odV7NRFfrPenWPiS32DfQ58Qllp4UkJQ1f8InOJ/OvOGd+TU6mpKLgoTqONVWlnZYWRAanmav6HwUaWosvVkfEJtrWH1bS23t+h5GJKtGOu5jNlqvSAlC/jdpd8V6J9SJrMP2yobTF0tWAWVDaTQO6e8InsFzB4XpKBJGR1g5/2/kVUXxFzWDrtZAQfXD5qgMFlP4PD9tgXPvUMe4O/JgQ9f+/3McVJvwoKmu2ooxoKSaMr/mip6qLqr/FPxuF68RTqRvoaVGUMl1DnsR5snRKd7PjaOQqnHzBJtrmMR7/zY0Mg/C4hsCtKfuwYcx9pboiMiQm9OUQMAItmFrV2jsXZsAAn7wyN13j+CCJM5/cgasCs+toOIEzgXmxv+mDvJ7XdT394vu4LcfxWjc/P90Lbx0kGMEwShjNAfoZ67577h02PT1mAnnhmaHOEJL8TCMSkzCgPZIr8JZ2spZTLX+3u+9vd9KvYSz1pjU7O9n8Kg35VfLT636zphyTzHECke4KgGIsK8FosvCrDobYyN08VPOMvisM3IqGyDG0TK8ZF7v6WS8bqzeFWGUakzhsLIZn17JgPXgTYsw6HiUueSJceDJ2VoM0e8LDgTId0SpXiVCMvcxe4vDrd2Ro09R0pYPCvwSH1O1AeiTioi341APGxvYYcw9v/cbCllqRD5lbPaDHkyrSE9Nb6RPtt/wflMxBSYfBraad+46ICsVkHBQFaUeiVAc1iEEjC014HUFUJqZwIogx4mYdC4od8Bm+aNphifuxLIvgd/IIMsfsQfr22yeO9u8HRzFa2QHPMK/CoG+NPWVaDcqXXlRLpIY6ZV7cMIi75K7L4bCXC7ezg0Gg+DYSC+n0374nQcAvWlZrqSzKvBCZGUkfUe+k5c1N+MDqrwJhQf8qy/T6QQfa8q1XjMR7m0UKH/AU3NnVaPchyUfZOIaDxjQqrCDBKRW9dAZJTGW27af5oQUjvp9HCe4QE5lgpo7SwfC2wfjWmwdnb7Wf66a0Yegp4P7SjGEZ5ttvRFGTB+fgMVdpUvxUmImJqM4Ih64sB28P8syOzWgwvozVEg8iUdZsnC3HKxPQNtXSUT/yRB/3vhAI7CHvVjxEAsCmIa2IKRe+AobrP5fwVmu3b/5AveXA1yaQb5Xi7+AMcZrBtcrx4C6g0s/bpuTw/6RKCSYdLGnr9vMA0SImw8NFDGqLRMj+GBs0SlfZXAqC7Oq4ccuQU0ieKLR1V4li90yM3U1SERzJW0NIgad+YydANy6EuQXtvCzdEYAskh/Yy5jdCCgUDDEl6s5zR3Ff3cmEOPkHwVRzasN2WWg6kutt/7HcvlYKRaTrb/taGj2D9SeW0RTU98DkfO1Talo6msEB/1MHIJaOkPRC3rT6Oj35pZL09YtAOyOxW73v4If0oZp7/RWp3hu6WmYQeaEhY4aPUH+1Iuw2dJyRVL4tJ5GZY3gmYCPenrm/Xr9XtED2/4Zuyhg00AW4YbVKMB/0G9CfcWxItZNT5ICY+mVKZHSknD34rvQRmhd794Jgn/+mN420tuDtpasjWkfxPNxphq3XUCIVrRqEyouJymP2BWDX3+AxY2+wTeaDxp/vN4FM5WyDikyk5aL7gttD9lQgUoHMp+o3Vr/ulPponHbmYBT8ERazGp1flpJ4EEYtTPB60JLIkYwkq887MpXv6ezMByT/bQpoKnPAF5lvPWZPQUZD3mtPoDH8QwvTRNdohNgo5ZCt56Uukvcd15n0BTrqhGb7/u2pvhPWYjgo0l96x11NxEAUbW1yl2rTLvwgUcmcuhe4919a3tQRKlX7ykxDZiYGpX1T1HlVa6s6jJre1j8nCUSJiRYNwsSY3/ChBt1+NMEir31C9g1Sg3gC607vYr29yxLsDBzlg0QMcrNLnKHj/6vTD2PA+7gwGwjnXqw9gtrX9KMBJTTRqWNG35ElGnusuK7jJ3ffu8SrqjCyEdOrTK1zDl7rL6Ye//nYd0ILlb9eLyhqKy76XLbdRBve9rUxGA07NvqEcGaV9l/zbL5/2Zvzwr2WLG1rgbIPCc5VCbs2WVKWNNh9AzqtbrIoYZzrpdHNZNiGBov0u+73YTZm97suWyXYb8yib+eWOT/P6FJ7+MIsYJRuhbZzjtmIYSiEUj03u3kxOcrQ1RDOoGkFMmidM8AW/VU7RvftgZ5pcx9ff89+YwC4u8yfBZNPJolgcTWSTTi6ubsKhoWTCglE+ZVfYAsDf9qpu3qjGDVRLW3PvpDIMpMUxXS3kdYTuERFYQlYmMdfLEpOD5NGFaWq93TDsr9OVCOqDj/LxVzRmYe6JAEZ6Sdhud+9/gIUWBdrzkIWoNqozBeWYdh4NABtGzqxxFIvQD7W8WO5u540cr0oRTO9AQYOyOdIWByyt5HhtAtnJYsdQowV6Xqr2mfpwihKUwvGKyQIOCagOrCT2YMgzSAM6mz21hbBXXuSK0sJorQx5JYS9TzJMNBAMmTzXmMgeXPg2gmQVM8+yxaX65dgMbkaNGUWomh3b5sCxlLtsFnuJUCIkYCAJlSDtJd262CoBNNdkxz+Tt7Uytu21uNJU5NjV/cYq+nMAAFYDzuYhhoqm8eEBXnIQt2Xkt3VH64wiUygalW2D63cQtZaLJWplZBdJ+LBEmiQTQcS4P5ahTkK9o2n+94TUIR5qt9qG0XF44EFOTVAbQwIti29LQHF1GL/BavdxBziCjIMskUYydkNjOCAsBAGNoYDsUNekZiM6mCcmfbYY9egQNXBL2xSDwB65x+XMYMyjPcRIFCIIOHOJNLdU5QyRtBGEmJQL/we4nAbP8uWJAz1R3LIZK/rBp+yF/vm9egeCisaUuGHTx4Ome/rN4sWuiLfm/WRVelxUFIvmM77G/azsrmIrJYK6U2+uxuVMbdg4jNqeK81bO7xcsdQaFJNV/niblMfT1OJOS4qsFvggj6EleiCeWgSA8+fI3lVXMuX30GGIoCA/wbRhXbblZmELgn+vwYS94loyK9zsg8GCC/WUEaXEncmGpE2fgHZagl+zDgOsYwgI/3feEuG1rMTX9adIQ4c5jqqV2Bgxod9G9h2+3GLwfd05QDsyVvBbKDdL1ZVZ9sKCqAFQhRUl2afAs7EZL9tKW7UPWgbFSgMwX/DrKN1DpotdRecSG0xjUIAFZrHiMSmbCFkpb8nKD7Cze1gbvwUJ9WSsMezyap6twdsFPHqSRXPWWtFW6bHM9MqCiGI6v6/7f2fgzqxA5o1HehLqqqwIN0lionRpMdCKNRNdQm4jwT6SGiX/7fbtcWGMpQkUc4sTfYyhi35JZcV6ScChRg7ea/dGgjYzANYO6lRUmGznOEsdsIDcewL1qS4tbmMmZlokZiiXN5Fe+SWfp/f86JClKcmFGuw29/f74duEuUrfdLqDi+MS0j73pTQ/rBl+0wh8W2+lfoL2W+ZIJ973+cVENTzveySZvartVsVADgr/U7qlt/aR9WQjhSY//6YUUEqpVy//7vCKgm/p/p5cT2/tmxNyMuQIYbDpB1djg11gBhG3ghixJuRial3IsYCQPIOzrJyePZu3bmdc2XQh04PvrbVZgtv9RoxGC9zBagWkGaE7ADY6plGMjISfCbXJjHfn8+Nbx8YPfw/5XjWVTFkiP0v30IfQdR1eQ4+37WTpcaGL5djFY7IA2Wqgf/qknJszagEKXTPF98/l9tlCeBZmM8NP8wxdl//ra2wt7y94YHAeM2iTpQkZoW2QM9Ci8c4rXdfwNxZk/vWlFYyupV6EMk3Cdb7aknboFYShkyzs0TsRDCzeS548rcuEXGcnWHIhDj9dlHCPbAr6J9s2GZ3YPUlSrzp601cwoKm1ERCQFkg1Jjj9a7K1wJmthQGwj90Ub6oDsfXHBQvvrdZ/vNgKfjvf66tV66V8yM1e/zVsk/K7eYMjzQ06994wIkFZkORSdXGpoA/rARpJyffqwaBImAa6kZYiif3sPwm+xgYhGmLdxnsuHHUNQSgeY8FS8Rv+AYBmtQN5aNQbDN0tJwKMz/oVtDi8z2JVkmGQLABykfMB0A6iYL5AqP20if7nI7PjI/em7U1hinxQLFwV5DlDu6nEdSiHwLZhIYrmtcvg3/6bY8uQXcCOqCqnzRqUq0gcWLfaENKS4Ay2JVmCrIciFd1/cWMmWd2dDvi6eADwU/n9dwiO/YhAF/3nFih0Sc3ERdfu+XwahFz4z/7qsZQJdOsfCmfUacWGK/ilz/x7XZmAIa1t8dXls9Y5GKb5t1/DzBDSIVZZ7mMx5AKdMiX+EHBg4qSivIiYVDte4OAEGFqZHHb+mD2IqL9f8B3wZZFmcBcsVx/4Uz4zi4H53DfptUVMZqy5B1YSWqDLcZW3004pAxXD6VD+g6uwIO5Y26uo8diC+mmwSiGobgcoK4e9LYzDTvykZUzVQjqH1T+SvEh8/PL4UegMO+i/cHiwWkXx4W/I07Gj/kUj0Uug0Hy3M1CYp734PvEmibzc6Pd8kIjDGgyQem6N2gp6Rt27IEtNfOSGhQXtSkCcGPTyRNpjFg46CC63Qk8PRhnrAmOspBTQClIdguhnOWXExbvMtSX7wwBDNMRd9u/4sAokITANwRgeXZLyYrLnWf9NH4UTaDuzRl0XadRYVhhSbMTACL7hxKP/kGYE9jVyRphzQMfcFVqfHHIjT8SuiXgtlD1So/4fOHMTK3VhbtCs0jwUWwAmijzeGhJ5pcvfQpN19fAqFbaJ1+RNQknbiJMPXpUx+b4Lq3QQRwi3T9Axt1/L49l0q6BhWGm8UO8F8cQXb//7Nzvp21glXgVp3As8jV0uBZxRkK5LLiSDDJ8Jylc2/+OHQvK/0raSxqOpDseYDtpPrNWrj4NFt2qXpBa41RX9f/CH/MeFBQopWHu3IUL4JaeQdUERKLsmUXejddVRKU171f/7eTN79ALHTF/0ojSWJcXgWJ+Pfk0XvycsmYDrxXTGVoA9ia2KPX1MFvUXtkBmatf9Lexs21ZjLw0pnhDN0Jk2Ye2lA38yy1P4N20HWjjzo7fizfBmtRhMY0wK0mHr5KTo5az7Bj4LLaw+Yq3RqzAxztt2bGzd/ErlYyxVYLshZmo4g2F04icUCk4UIcrQvHbv39hREzwQkau7wwPB646kDJGobR6UfKob14ihuv2WGpjuf0/8mvEthuBptG/NlJp8R65aBp5z4+2ctD4vMcaeQd3HZxzpngKvesoLOYzkQFPLBb/60VNEjAi9Yn1+PFl4fF+ymJ7nPrgo9Ve5C4vAGPxlQm17TKtJ4/qX8gruvXhXln3diJz7k1zYWJKE+cAd4dIZ0BRSADBN22AEQK6IatnVAZBmghY9y2DAB6Hyeqk/2Zj2tlwKuJqhqHAOfQHk/5kMN8AQvsVnGOwLcn+z/8SJgsUqW9XBb8AVeVv/b51jS/We67DLz3MBHqaVrg4cjuVZvu+xMAes9KetjQieStHFl6HqfrC2hFKEUIjlR5f80Juc+jl7oYcRyhnrMY2g1YqZtbixQxcORRXyVbfTVmXt9+Gaj0lLV9eHNOZR9rAUcHProVogXrkUdo+XfSf4z/e9+XzEBntc+ZWL79Wgs0Ri9rLWz2hCWo3m+C3JADdsaNni19v7b1G2yhQBWXZrHdja5qSfDg4B5WqIMl0tNWKBikjd4mfftiHC1+wKXKKnTvXbeFEyeQdu3MZWjbo0Oafh9QZ5znfaGcpOewqfD//R6lGwJsnOWdiPlICmOYLPC9uXl3/UmihPZEklPvEBZF2p1x5eoq4qwvpW/zyckVa6qb+X4/wQVXXBKlW8nrjU2m/bUyCIxMcyXQEXO4ek//8/c35h+1j/i1gGkGGg0vhXj4/4BZqHcxne1TxKlzlSogIUXalEc/k4x5KYkABtBcaeBr8mHj7YmCKEP2EueHrWHM6esn2tK8XgXXZewx7KjQ8Uc7M8QESDKC64Kl7H4VUCVfJUuC8vbLVCjQLIDLXQiqM80z/2h42ZQ98OKUjqFRMBAUivYEm/Rt0x56gGYOENEkAcnQiDyqUX8aKXCQBzeQpyojvfAt378DMO6IbhQmpfHfBDfLYaiPGgFWmeMsPakayvkzpT6k3/pUKEQgLxYDYymlquO3lpYbfC+VmJUVL9Vz5Qj9apMlJmuS4TJlAoZVfD40v80HjJuYj+30Q19qqCa3aIplQt8tszO5qmWE6WET0DG8L0duut4YCsEOJevWuq1qruuHl8waPlkL1A0Hss/1h6LDYcKkzijLRh5THrUhp4dy07mS3r0dzOTWC1jsZMAp/dv1dl+6OwC2SwsOC0Bl/bqeYNgG1/2QMkw7zn+ote4uDuVjpl2mAUWBXjiD14eeiJT8hG6CwfMNQV6wWxrD+7awIyYJmiPCyMmLgl+3vPccy5kWEzNP8EyppQKI8rOhuv1WN+N0nmILCQPUflziel8yg6g1lGc1N4KAzaw/EO9es7+v1//xuVQ3j2qQ3DsX4XbLdeoBPTS2YFIKW5Cw4zlyHmeVB6wvoBZoRa26n1a1r6fBv+XvZ3At9klkvydC1fcMBiWMWwLXtJYWKZt08c3terovmYF7iMmbEOon6XLwEmHbPlCB+aNx2paACWsS9Zh1FHeBIruyzCzju/vvbwK1peTDz9jlnrX0V2ODZ4lDfpGkEEWsein9eze21v65T+S7Dnv3AO8WldirJBTYLSrs6z/fLa2xMZfyGGmdkDupq7JByf98I+e/zDaOIy+rf5cHoy/rxUoJRB+l6zMkg1P2Q712cyRvG6Cfj0nnBE+sEdfrpJFNyNKVzMYbqiMyHgg22fDTIf4nTtN7cmfb2043FWz473p0GiqvVY/StKFvrsR/kdS4iMNYUylluEoGWiAoOny9PX6rivj+llQKsUbwzJl1BgBkS/00/j/W7r4hYvWNZDaZ9CYHHSSCf7AbWYCz3iekW6tmEx/NqfkRu7vKTETjyh3UhVszSHvyA5szFg78sA5yDQRz0R3BUZ6idyuA43hY6VAxrYP0KHp5Pbucn+mUeaqQdgWCID1Uqs8g2cEAvPvAzOQcYDpP/9mSXlvZKPUZ8B5WV64A1aoe2G46oMD+ox9REsqc282BR1KfC+jsXYjKVav05De0qLuvMyv3ZbBNcWhNTbitmYfEB9Gfir+OZsYo1WP7B/t2pX/cxLwdVpjohTGMlYwomVj/5ma/zRNEoDXMxW6K2lGrpGysFYkYSdsbYPCuGCVLH+/yLaem6Owwxsk1r+pPB5OmPcHp9H/IqQtsbSG+ungoA0Jw2JOSt9dcN1NT+rw01m2TN2vXu5FVuEdNZrzfeLr8kbJUxqakIOK3vITazRKTUty9OXOP9ptxE+ECfKkt0IDPz7y2ZItMKVldSh90PqIfFjMKDFQOrt/NgYBVTfu64TG9v/f5je9hlkA7R3o01STTFLUKNg0/qG12ZR5jP43iXX9UQA1fTQUpu3Z1CYmjTseE6ijSkhR7fS41SRTp9z8sr0UKi81FxOaT4ev9uDjJOqe//f6Hr5mJkE3h/aTX9piv+6hCRiHeDCZj/zPzp1N/zGe7N1z5iGCT7NoJbJ4S8nu2a7aR2S8IKKy1HI7udWA2FQDSMOJ9KnvEERKt4NL5lf14WOX28DQB4d1RxIp8eK3Xmz1NZYRFEYQZ72EdADmzMpAO32AXpiyvP4UcU3T/l0YDb53klgccjgToPliPhsXwMjgCckoXT9Xg7/8GbqazO2TbQ8tKQT2dlrgag/PkEH/cTfMesZjt1dSQdXiUERAOGiSPQEjLUMi/mpbFwQ6JTlSOMY6hu4T1rYgSCEOwr5jBIb81Ya6wtiGwoqp/lMpJiCW6S1j8KNLCFCk6h7wa6FNXjsPjaOZPzJuILZBs//v1CAWa7Jk70jQfU4tawOfYaKC+jm7ItTcNHVutuyr40BY2uMGzcwrobrgVCxrA1uRRl0RmY7K/bxRkPY8XnDrhBJ0vG5H44mNq5kO30LsB//YkQ5M3RuAI+qhLqf+LgF9GJMmtGHuM5WqRsTCDn4BfXq5h7k22pjZARTMASDXGdX91Yu6+k0rQEnTXkuGGuefbEZm3Uz9Ot/eELADikFhuqtrpDdHxA3zLs74wGMb2CGutG/phoFCSdOcOEgCqGU9RiwDtXF5g9ZDrFxXWP/YWctEkaQHSTLo39KfT/yZCRzo0Uy/+mOTRAd6w0HSBnj0vH6svK9a0lBkXh4SPQTgh7lyGWPZrokYCsf8ZDlqAmQh3Bxa0ecq1NBlSZf//7PWUf+yr0BkHbE44MajPJR4hF0y+G1ger2ZB8csVHlk4is/2XsZw/3mxYp+OUxGOWPWfQJ6qGNNQdayI9iN1yrINd/2bOujB7V7HquGpEYRR0yS6oEhax6xfusPUw8+TI3tb1IpduTxlZx2zvgGuuRjtMjf3Pou24IeDaq73owDTWYdyvdyiA98HYbR+/FfWv/GP+xVeFeX9tgVNEpBMTBUpUVkhBTbve5mRGewkHoX0VrG6UQKaNOz0lj6oseq0VfLZaqFpsosRKrs2bmeT003WGJmXNdhpjMCfp/5FjGco073EeSrO0pnIYbnFRbR+B/Pvk5fJbpU2W91DY0MHj5cLg/y5ldCss+z5O/N3yWiuFh96ZTFxaxgxaCcvWd7WUBHvdoOsiELav8TrV16PXp/QXRyffeW6SRBbfcTkg1ngCHX7mGYNvNDlvMJDJW6lsY8HtZmvuJoQvjQCubN6Na7varxpTlOw/44ByZZe3qfdf8AQHf63WDrN/JfC1jJ1fsRxla5S12/NEiVE3PLXJxAuc8cguO6lvd32w1LlHQOidPQiq7mYRlMawXlsbzf3L1VqaGTbtlrLsq8Y0RAa1fCL15v273DropfQ4L5TFaifvQWlbbV2w0NFG18wdCXtWb7VmO43AOpWTIrsTvPDWYIgWsm1qckvEvaoaeoisztWiBFtdTD+GzlbtY3strUuM+1gvFaNUfBsKEWRQBVwp8hNaB048K46QUOvZWcGtFeV3O/nSNtHoisUt6BFi0BObEd1AgPOQQZ4O3d0QpkY5Ed2awe2l+g8Z6NKMaakiXrEom9Z9mi6UnBSbjRsAlqaUJLEGxLr/M4DUwKHT+UgobedIIafmlXSWCmiGYDT3bFdat3MFtbQttxCyx+fW1DZ990Oxw000uoKx69mw5kWvSoK5rCkOhtf2DmtvMG6QpPx6+Nco6oC3Bt9/nnmhzX+EXuP6z20Vln443EMcE77vgKq9Djrg6zDb3SAuTCo496jE1ww36YOxJU9lb5T3wVGDhm8SeHOYbSw+u++CtmwFpA0+T8tZaPy1nDehr/3Iy4h4mf669HIu4gQbte+/8BMIz2XI20Mgkz3porT4tZZmaBEgT3taw7dZDEPBVltEvluzhE7P73jbRqzFKA3Prsec4ODC/yojVXFJWcDdhNCBV+deEAbqiPJE5YqtRgltyezxnNXG1moQB2w8cyplAAxQkbr/AdrV4pYvhBxX4t0isMu1Aw42Yo3zsyZZ74qo2ENX1te2xkSUWO3gtRrQhFGSz1W+1KSYcYIsmT92GkdrKNNW1HqQWZpYrspbkPAOlsjk0Bjy+xsWfmJ0eKNlB9B90iiORXD7EREKpaHJr39QOiZpl5JsK8yjQC4GSwZDgkYzjLe95/Tp+t0l4W4vlNxPxWAHE3Fpjm22yRHIrUlTYZMooLP0p/8ljW1giKNulT7RdCWJmLvDJc7akyn0T9iyJlW5Bv/6elKfpawL9mCcaavEWjCvKZVD615jweEM0m0/8VnpDIaI6PL2JsnumUzagbq2Sk+X6iG6ekq9ODgKekS2sbuf7WwyebE2tB3c+D8/Bf2nTGmeNeni28wMB7NrCfXsPg8wyqf2/tvYWJC684YRIcrcXQwsnFfQ9Uj/0vr128bKIW2roTBpOZJ6ZcpJaTQzbhZorojdYuQYK0+1sLeHfXBpjk4mLaD0n1mm1499kDDkrSdRWS90bH+siRK6qAj68L9Kv0XeeLz9a2/a8vbP3tyjBy0PQbCAsmUwW+zskNpIm7c1vIXNh/Hfp72a38TxlOEVUTfVQBOkoVJtdsBnFdLHQl8e3OaEYD9w+shjHcC+K+5vow+fkLLPDDDNa32kB5+LIr8tqaf/u/K7ubk99kwL7da30SN/Pcvf+/Xp97CEdKdh7iLpdq00zWQyp/76kxFlKVqqZ9ZAdI9jFoax6mTq/23H/u2C0fPkzWYLSJma3oGSuD8PRq2It+tcqwzLfn2xtgeE72Siu+1dt3ueDbfZbW558JkwAIEjNFK3ppzv0Nkm/si3rHJWbDO26DTQFV19U37St4Dw0gmlvSTmYtX6k82M0h46UYu1P9lx4NrK60zD2X/VyldUdFXOAoB4wLI9H+zQu6oLvJDCyUTDWLopdju6dBC32odOrfUuFNyMmu7Zh0bAKR0YnYh9yd2ZuAp5RUb19t7WgAoR86EsHwy8KNyg4W7c7DCqmHC8/2J5jTKO5O8E+gbDu1gCidbvjl3Vy3sbLcQsTaKsDsPYGOsj2BPmYyhFCS7oYhzHsLUl+IVb12kwdmUNCOy6ZU6E5yo+zWFG5Qayisw89aYPeuEKTVb6mKEiYi+kjtspgyqAsoQGdusI0otltYB3DTG9IMDgzpHir0WDD3YU3eNR2gd5VQQyVUvVqYD8rm0LffdiVdRvHX8VbwgF/3YxvGvtb5lWPueH3bkpFOP9zksbnPOhtjv7FR8EtEcN5XbkVhtOApcrff5z3QFzjMmr9a/zYjXzfHqBi8CXuQfRvvVds7Y0m3E/ue5Gw//QTV8iPx7O2ym3jgYsQZCo27Gprzv9oZGQW0bPRtPq1GaCMSmzI3rSdsh/mmnPgXrbppzVlEccSNPEquD5j2HxPit2ws85M0WZbiBWHpRLm9T1qbVWbZ1SJOqEKjPjT77Lm8gFpD62hRp0L48wBXbd+tde9JA0sQMWrno9pG6HWeFOrH6LU3106fraJdWtQGmQ2Xx10x/2UHfGpsRg9n4wtBLCjTymBACIAAAAAASHgAgASVnUvPyUB/RC27d8Vscq9j/HciKzZ12D/EaB6B82nQ+KL39divZSygGN3OvldrtLCicNsZARd0Z56Q1mTmYF3kPf4vfXkbUtDTu59+BqQ+1OSR20UL63EtxNeypnSSp5xf8Vf3xH6SqrdQvto3JwhofIaIlhGtg/4ul7Csi6N0OevuyyJaKK/vtjMwlgR+wPtKzDLSe7/8Oors8YNjfio0UeiMrqPkWd+Miuf5YQdqj30phzTQGapqByV7/lELL/qrt8MhOd9jJgwKTTaw//KWvq3oXlvN7TcZ64N4kKkSykQfkV0CeGmvr3Qp35Xt7zyw1ovd/aYR9AWiVgYaRXkDvHDoOVJojULJWxlx8ZE34B98NfVAPejO/8hH/6lGO4cUQXtdB4km4diFxitLraS+EMXTpe/oMV31ktu/f+qux0itGqddMIX9H2uW71DXU5R1jGCYaRquWscZL/L4lflerCStJ7GXEaiUs8fG4vOORE0taRb1WqTCPsuZBBB95qh9CyMId/tZso9Su+1uSi8XiebwIH6/yqQna36qJtUM2UgYCQLYHv8IecdiJ8iUMEcYrU90yGnCHaa2oy5XX9pcIXkGmL06sBtJU5NQF6FcTy0H/VT7qRl6+iV+pLC90ikwBgeEtw5/5IugK0mUZ33KsMFWlBjV/jyLwssS0myfx1LffX2P7jWX09FEVY8sbPkcQ/CN5mxlqUQRbVBsPh1f7DWe2KHlPbW/Yv934S6rmW4zSM9s2y2vRHfD03LE2djT0G8kTkiz/3ZdB8X7rPb7k/1XuWn6+XnzWkXoez7Nu+j8JeK3f2wS8+oHswm9Pc5mI9Bnw8ovK/Y6ECBFD4ilMTGHBtMR8IBpskJ+nUzHpi+QYUR/38vfkIJvZRgS/aPxXsHZQj4K2S3Vr60M0e9B6HQYC77zdBIYXDGT+TzL+Vl/0Gw5frSKzn0ekqdPod0Zgwu75IH/V5N9alJL/qp67vF+4zcjvti8ZWx9sLN6M0UITj7sBDtQRMx57UOVr9mmRbv4ldRnp6I5u9ueP4U5+upsSscJB0K4/Y1cNtHkn+CidgMjR7qnDsFfFclVJOMzmsDtX0o4z0unKcsaGXh0SWHEiHUbiu4Rsd0FzHutb7XYy7evu/fhINCe8rHLzew+wjKU6EHWeGiAsMgQBbILZftVj3WZpcV350xcWmvwhNHyx6raWIUHIi3mY+jWpUYXxYH5KLWblv3SX2i9/WkqrZvcvN4hytlCN7vaG1RWg9OgvY7sjRpbUQYXSq7HjJSn3zEi0mIsG8RSHxfAdrD1KuNF94R8aCl0GPtQiYOpP8fKhE7S0/G2XUiBDnp/yyXVqrRSq4+2D814gNFyHwlk4UAXv75Apee2QH0t4h/TMwX7I9DffsoJrmHpxs4d/OEPY3Iof0/u/cVy9rZzLivHdnDCQ9DsmG4bDoSlTpNVracZBDt+ZFtdekaP3d8wf53J4g75rq96J9TV2LoAyXjI5EjAZZ2KhrqWJ9LQzPqWGj77fgP+ssu5Cm1ycvv6qqcnNr0joozbaCdi/1DnUvEDZT74ECBsf5HZsDNKt0nS8jBB/4JaO9Hcaz77STLyeRm2VKL0DQ2aTBgrwccSPwHv6PF5YmjTM8GouvlE0tj+6aHfQ2vn6NUACZa/vx/TtUpYzNlDD4K+Thl+exD9E/tLgq8GeNowY/Q7HTRdq5G7kxXU/gffuNo8pfaSx8sNm4Odrd2k/DsLl/t9hSV3b+OgkmfdY/u9j8Zx1R5cjzGbAvoXP0tD/KEeh7fqwLNCXfv2y97KiX3pKI+0M2FAPvwzCNGH/sselmyg4bH2bzNmLwx7K2KAySUveiP89iYfubUg0+Oj13LZwGCXiSgGOk8Dj/cYJ+ne5JCm3/d+XhH2qXvl/3wl6TAzGSoHKPVXyb/GF63oZYyIZzuZOmnvYTwPTpLEQdo5r8Zplqkl0RDpRXYSB9biKfBkJfgpwJgoLdRyXZEbYPjfS98tdEctNBPxKTz7C6uwQzYxEMHqhu+TQX4Q2P3zW/4uUlkJZCXJCPoHQPOS/ZHhwPv9VjLG43RwaXmyAbdlU1b9iraVBMfyECExnQ6JioenQp8tXbJsmoRx2SnTueWA4DA0PNtYn7FJW3dWresdBcPlM9A8MnijFhAemMGaqdFMX2GfmlJUpJiybXf5iisPL59Bf3YBv9VfLtfm9A6tTV+ZGpJdIhYRkmYNnh4oEoGtWGlmbf8caNEd8ITTp718kd7ku1QOQl4R9JEUn2DOPdPI9zl4C1LyNBLs77S+heC/PrZKaqO63203yr5d9cfhgdjR0IZm2o9DXxGj+/UZrMvoeRBj0z1s2ygEevj1/0uuoLgKLTQ7KuGUphPB06l48UCGH1IpVLm+zgGWUuvLw/1LKSu7/IUte+XTsfi+yCR6Vv+9ldUb6qX0m8VY0ckDJrhIIbGUMW5LFyZvb6+EpGff8J3zmX7+b3fctPrXFdj9j6J2/ipn/ceTGM/fpWbiPnzPnNqOyeTm2BMH8mho2ROX2/VScVRej6Owl+E996RCXip4D0vA9aYlOmLUnL2r6uVRP6q35lP7YqxUVGxmSZuO+QayqW1b1rwp2yMFaOnJV142m2PcXoM+fsv5PYzpfvOIGBYHXWPKMCTHb9eSUk3CfSzifK+/7iNLY/4jRb9ctL+a7/ifaR/1U+QfvwykptYbPhmVJ0XjJt+97fsRu90qB6iItYybu7o1t8X7bkcw3v8dUiaUVYj62LRcU9j43lddXgsp1ZvRL3XIMZ/XdFv7iOTZ9afxeiKk7PJxfvufPF9j3/EWF7BdtpO1/VSynJ2+37FbOnw0Oiucdo52N8fQvObcsxZKXsI2OA+zTOxpfFbaBMbWU5LbtU5SUmM7KpEh+hlSwCRXfrrTd6req4S32XXfolwj1o+rH+btdwj73d3ui96H2Z0M8o+hVpwxh0ubQeoA4A/81/79Afm66zTUv5seaPpC9B+z/F2bPZr7YroWoDHoor7lwhUU4OsKmji52+pdSWh9jzM4cwHnf4Kp/DU4wJBhj7du/wTyBgLb0LvyRGW9H6GW+rv8u0Un/2T2DVfvfq8Z4BV5F/uLB1M9bT0oKtyo0d484UHaOh8qri5o6p4z0tg9PoGgf4zte6SWh2D0+Iu70Dv8RcV7lp34TnZM3R/3tfqvk6y1qQQI2BXWAk/Nzd/Xo2+sgzQ9C3sd9KqZdv2gnS9fX72D13sHvm6LW198HYv8JegWUNM/GbKiGBy4Qv0383cVnmo+j4aZ+pUof+M9cIc5Vl3/gRnWae1PpUD9t8uvtJuPzhWPpx4+8hjlr9xBToJQSaM/jqNBApmqoDHAoWFyt7ZHnXuIaMH6MySSQ+0rdxdn9/m7P5trEbN4sqpIvYctyX/ZOh1sJ5fT79PRZZ8nCfY0BEp130D+JsSGz36zrKQm5l+veVD7Q69ul4dP/oyDBs/Kid7l8sJWvmzliezfv4R6+1T/L2vm5afN1vl13sVb8q/X+593qSZSa+bs2DyMR7A7v90X8tfqb11NutyQn119fm0tX6fbJ6Xm7yr3QrfqfivfdF4Rp/RX5Z98vuuTtfJ7+b2D1+I9+/vR/Rd9821/9V3y6RGWdJuaEfZhvXy0sJM0Ax6Pn9UqdfIvdWMECno27vl/Sql9172L0tBjXisDfxfYmh+scES9IrBbJcvuTkw7u/+/sF4Q9lZ5QX/L0fqTvpfdF+i+r5Nv6df7ofotTWf2vit0Md83EwMJlWrL9/jORh5jM6l0bAtmGHJmwMZ/nyh+LvHzOllo9ZYz2qXRxgU92DEDvwvdbUV70u3UI6PSogbQJZSTSaZnU3Cn6FZRcVohBUNVIYS05UVMSkn+Mva9qU0PNQ65qzh3mo7ENJYKLR7eSoMVR7YOUqlV9bAizNsI7J/RmKh+jV9eL0lo8pjpcFGUFjEUYpV6UMHQKxSfJSWEf6fTuTitm6KTkpdd0B93euThPQsdxdlzTCPLl7Tj6MG7S9xnu93zQULsNeftd7y1974R2pY60WPKY/W4/gECyE2Xy/R9nLfnq5Ii1A2DgXkNrbXlV/iJO+FxOW99/9k090jafqakv4uv0P4rH/tQ7khD8bKZv6BUgl8H2RM2KtHBRXvwuHcQe8P40IL3/Wv9PsT0ZTuMBIV7N7myRyXi+9F+TvXF+3tdDC96e4RvypQ8T1+AbZAQH8Tfv9x2WmWhEth9g68RGfXu98v7RZmOz7L58Xyx/9G7V9THIfhC16gY8F8ZWvxdO1NQY8ajxmy8Z146WkwxZ/rp8ZqrB6jzKvn9V7y6f+tiu6Ye5T82FL1rfhCMmXBz3AMedyRvvc/gP34R9d9r8VkIP071HUiN9jQXteE4fu66d/0J8hxvxW772Hp3k2r+I6PsHZWvTba8RLCrOCAoBcq3GlK6rY+9J95BiYUeArZcvKIcv/lm6XcXYOlmdDDDjwneurNfGdVQNVVl9NlL+Wnj6qpCLWkYnoezcdIYmp9eveo/K0EL+hekKr99ct/2q9eiel7qL3U0ldCt+/0EvW+u/VK8mUIfqfkr7bqW1Ly+X3eEd3P9tE++7SH54e/saZOS7Vegn36TPwh1oOzZug9cX5VK/qIr9+pK/1W+x9C+dm4bF6DfiNfPFycXt7H1xXb9D8nT+T233tZXsnWu+1Jyb75uvyX8rVJWk6u4/0nh9DMyC8/1D7jx12qgP7p+EIB1GboBFglMqq4syWOsurQNO0IA3iiCMOoe/sZNAlFkcEjI5Y833redrLqAIBq3N9CZYF6QCIClV2/7xg3bY4v/mwankn3BUS5uleu/zWC/qtdhKj0LsO7mE9jp/r5bLdbvvUnz09WybKa59zJSlH2G93jrYhEzX0vF3Lt9/m0P9a+Xy54nu/ZeJ9gTXXJr+q/qTEWHv2PxW39Or62XfW5Ob12zej83VLfWSE9fX3dL5e8u5uScUKC46uRBHvkZ7d38Ed76+O7AuhZEf5t9V/9V8Rsvf0/fSJ2/ZtC1qm7V8vv5fYKsva/WJ79fJ1mpVvVkIFL2n3dlxW6ItK+EeQIOO+P6FQr/H7p3+98uv6q+J7Lf8d6H2OniO7/3YL771N37Rd8qkbkrNy+mubvulJjWP4zxv0Ml/v5wgCQR8Iymvvs+9MJ9u/XwKNGLYEARgAAAAABIeAEACWiSkO64eeSEKNhEIwH0rB+WJz4jYSZ6BxP+qi+Etn9D81A7OXm3xGH747xk1QDZ+4Xel4ygfNjT+gMYSuhxX+qi+J9hdn5qSLH8nsXjLePvFA5aDo+zS/uzpRVP6qez3wj60D+/jMODDIxh3MUHE7PduwReJ/A/scsZo2SpsHzU/Rr2WUyy+pu0i15vy+mIg9/N6fjNAfel0CIXp/zWD4v/VVufvXWyb/kgZ6h5v22RC9+xv8T3vTqV7UQYEnsN+s265rpoGj8R7BoHYOLkL/6qIqWi+Y++jcsvRN3YPoR0kd3+I9+fL2xHf0C3NoD8n5fY+3Rc+zcsSZ4zlKI8ecvEwX0vxPR2XGf6qeT37W2lE7WQ73XqEO3sLzkH0L6P2uhV5mcrCNwb5AU99OifT36vdviFNwjoKlYDaDuOUaM9d+JwGgZ6Y7EgdiTUBmvP/qp9Ct9j/i/QPRoF0ErvoL19V+S/fH6AqcPNBGcZcVGf9BPyG+7+Ed2G7fv+bfLxXhlqt0aByk+ll7qO+gIdIgenl9SH0xoM5TBnW5ZCz8vld6qdEKmM9g2H2K4fbqYS38faPP0eGFT/m4ZQ7Ao0oPy9ea/iaAjPv0Pze/vs/jPK25XoSJbtbBCgg/38IdxO896P8nQukTw8i6Pjvd0+9rbJ388nCWi2BINhoXifTuxp47l6BfVTleyavZ5ghqrJv0WNnDoXsZb5poLlpQ9L4+/oF7H/fZ71rEy7Ps665Kf2UTxOJ/aoCVb4R8aHPobKgkgZy88dnH9A14wXXsx3CVLjsR//qpO+jrm8tL3GaedkJFkkVjoVP0TofQ7FDLbd/Af82j637lvlBe5eeslS+hpxVBPQ8NJEMsEzj+T2E7h5WY9B1o3kj470A0D8Morlqv7zxfJQfoxV/9VdEkqKtv31eu8lPya5ddxVOnXhHi9/T+/Yb/1U9wjFjY+l7cXxVthpkxFAcrNXhGhxhNx+n4P9C6ZDfnSR/enk/1U+c2y+W+/a92vkUvNb0XidFsf8fS6C7FIGMZy9uS18muv9VPU2VjrZi9uKu9D/Fe/QXlyxRVBBe7fVfl2ETP1U60hnu7b2bPsfStvby6k11H8qnTn2v7sGsfslBIHiOXQ8nN6dVjOwYSzdalJVVcimhkuj981/COXPW/Ve7szIv+kqq82/l5PNWv5RnlQovsdjY+rUV30DripwgHDgn3I256mM/j/RTCex9ASPwnnR2aB/x3mGhCCrKEoUY/S4ijBTn0fB/ev9VErU3RfL3ul6qtZhOZjlXx/EWYZi+Xou63/qpqdvRBWVR2PWqvK2NbFV7H9OM79H7o+bf/qqrEbfY4jiug+xdY/mv3t2vpf+qoulWaltBHotoNJ+EjK56rQ3jL4zxKW0X6CmpG43cKO0dF7qHQj5VeYvTvk31rrXFemno5fk/GcPNcDnpptcZGPpfi/Kg65UL9hmCCebr/Vb3F7NiMqcuQH6jPT6fx7PUr8r8v9VlhDS4dm1PfpC5STPKSKS5dJ7V0mhdGjznCkF+lcvvXl48RxJakr/R/t9BtxWp++tWpOE9v69C/Swj7/Jt3qXtAo8tfifQx8KFoL/uwIGwvkiNJ68foP7Wv6qbk0D/GaZ2JlOELX14y4fgJD0TwQB+h3jBo6fWhbaWEu6F965cxXVfvX7E4w0dA/ZIlG9nqL5ad9eajHS6+o7te6trd8knpeq9a80mZhKvGWdg/ZDXayLBoC/vpUnxUEb4a/u/b7wo8iEV5CQ0bf4T+icYm8O0svvvUt/ubZ/jO5iXSv3vqP7+6fpWhF3foHp8R7SB/aFd7/y16/pV79kyN/E+yoPn1CvN732Jv9339hOh9r9l2sl/Srd0K556f5ZO3k5uijqybmK++l4rsYRPdSIHtj8qTyvup3j+sed5sECjDrTNO+XISkvbpItsxRk+4rg3BYMcpyjXdrBUrggysFZsiB0myGpTDZ/9V82h/Xzeh9T83bi6UVxPouhb763X/1VarUS6GaqXf934Q5Idk/WDf/m6Kubs5P9V691p9ut3ZJKX+8Jvcuv5LP+bly+b39VIvN6Ye5Nfx9P3fe647fpaXXwKNZp4EAZAAAAAABIeAGADWySlOSfrDUuzeUNdF6H82uuK05Q1Q6F4mUmy8FNosXQXauEfT3qkzH5/l8FTqDuuI9emJ5u9F6/6Nj7kSJjhD5d6O80OsZOaIG5+4EXwFmZ7JO3c/FdmundUofTBKKDtU0vGCajTsU7Uv0l3Ik9MhQpB2JKuaQUYzuV1PmrE6TCLFfE6yvfE1683FWfZ/33+Ix33gOxfVe5uWwND1h2uM9BUewQX3yBgVw4ihbX/hH7EWzTx1lQM065eahofo/y9/d4QocurKiJ9NeL2reEYBR6xuVZMZ8yTp5oRS0C4dY9HA76AgsaVkJInE7jW2WlS9vVbGSI60W81cGOL2H1rmS64vaF7RwHEDW333/Y/0xGh/rWKJHGL61L/qpO798RY7aFt+70MmXQLZIa6684S9g0J2pqoAH2jzDGiZaXy6EbGYs+IGPCPYVtlI4hpNfN3rQzXv9lsCrjr/frEFqTZuiHq5AjYaHAnr1vvsTm9+Z/QzDtbBfOUhHKktsjUeh/DQI6GQHdV4F8SSXmNZAbW66leqLiHkGT7HjKPLwEL6u5ZP03m+2p0GwY6ySURauV/vvHTDzKm/1byn9KyrRT/3za5ebX8vT/9VfJvvivWv5vYuiUvtAk1X3IUI8pthM7Vry33YqItDKIStSTimyy5LyiaD8MxbwQdJQ0u63wdVZU7CfC/NFExmGcsB9cWxHELePt8uZ9dm9ZOaF2O9vS37z5pDL9+7sh9sgkaY397o9Rl7jJs9rY1E8Y1EI/82bo+tHGaW88JoxaIm/+T1wf/ife+8KXZAn30KN08ZUgYKdBhOv47HvFtddKW2bgtUayg8Iv6YJQdINqB/nbSV/v228B7fAg8SXYUlnuHKXsaX+E2dfeAliH8BMUpsV1Eegfv9+73XJf8JfEd/RKUgrsXRfLYL+q6CUuFPivb7fQz376K/0wSXqn3xmn76bd9/EctLCa9x8/7Awm7hxO8jsNj73ja/Cnq6Vm0kwOPDt+g0NhPlfzFrHR1D05TGB5xB/wQ4u3wWW9773ZOdsZeDYbLvjo4uzpYgd7kodb8Z7EZk1cEaJGtXJ/xsiCEumGjfTRXGboSasDdd0Bl+Mj7Lmghk+yAzN6okVuVU7LPZc9MYRZZWUUiPmaX/96GtMIHxWn5vVdW7Hu/XNQXXJf3iDjth/bQ7D+Xv9VJy96sIdQRe/fGU29fv33iCC6f75UK9qNdil8OxTNJGb28K9OJgLTL5P+CXRhxPup9Yvj8xLoNmwZMpeWIj4wvMTaYGgTyWCB3CHYJodfdXdP8Fm941cRsIM+z4U8sHKE3M3vuVr0O/sISoL5/Tfrcuh+/fQbYtgIfedueVq2T3XTGTOqpj7mGoXg5mnUZS5YE1117iAq2wiNMTT5sMXQ/dFEma7F4DlXvT6HYAy0yAnjtoouDogbGr4WmYob+uLvel1y6/hLX39/Fa/V8RXsfxTfaKxiV9V8l99uuTfwee/xV/PCh3qEdj0rw4p6xfessZ36Le1C/RNo3WmFKkoh5887EfqbSt4gfy5oI+nz9+SEdXYp4pR9tgpbaXURaHJwhymLBsipC3aDHoo0XXkQQ7C0JhnMWkFGUYLRqByuiNiDKpelWNoG4jkYMGmzDE6cYI3jCNCoco81koA41Ouu99f6emMp9vnDA5RL1QHk3ogzeXsPFuh3tg7s4QDhK8uvjPYwC+77/l7XP3z3r/s9uZ7GEXmqCFpeZ0Xd0ZAtYQ3Rs8buhQ8/eft8d0ISZi30zD/cpUOVgW6F9MNf3lEf8+kyspofL1kkL8u/4jf6D8V7VK/iL/S8/f710nYal2Crve6Vuftl6Q2eRmOhnotFvHh4sSAshHxnGeaICg31hUDh76UB7B7hTD6XZpMGwdKnW7JF7mjR7N6JaCPsBNWDceBdgC+VCJh54waAuHfSmXUmfLy0/Xt4y4ZU3rX3EsV2JPzWn8Hou/iUq+THyrmqW3YzpDZBFSlY9wk/q+D1oo6djwiYlkx9RyvRmmx7oMAmE56DZN5S9/d4R8ciewGM84qC/+uSGx3xMrIu7pl+6YykRPmZHoeFjvKdzu832cEExdUyeegSDZP79BGmghkXV8huPQT0f/dWPg//yb671/J1+bXchTd/i9bFr8Eva9X+LutyKN1oX5kdP9VyG5vT+T3XNrytk0pV0nu4zYzhAIs5MhW4SYD83wqzqMW8iaXsvKsJf4yIl1JtTUZ03Wto/1oiMJ6exP4R0e7j11OxjuG/g9ACLPsN7Xl38i8IX5c2ErAymYSfUFMaEyZDkhH3g4/+bf0e6guMUu+Pyuuh7BMYbSO4OX1R+whypDhVeZ3Exuj8sKePQrOIf4CnCUu5+Wg4P1qL34d8vrfYywcYe+67581va1g24Sz9x03ZoKAx8GArTZUwlbSQLaHIgohungIOxcGlDbH3+xjQkdKxcwy19Ow8Nim43ofZxnIYtnS/2tF8Xza+9vIcu/LIRVmW/ptlqMx4EmJvYGoTyNCrT0N1PIEbedPuNggQtLqYeJO8/8OMbRAUjQaNxusOMS/x0eOfFkPvrCXUVH8xeLHI3ba/Uou76aXbVGv/CegNjsv5LC65LNn+P2fOQaA9PW0K0Ds0BsDIIH8KWFBPKxlRY8XbRCwH9+UiquXzpHyb6TzjKKowf5jaYQavvr3wU/u9krCsOb1HQ20d5EpscbWQCGcvrAq65JQf9M+bbf/YU0Imy6vPANGyXiaxv72s7e0P9XpenOgpkwTQS+U96hgKNJR+WKdeMv6Dl+177YT7GiIMnIPuLgdvy1l9BiYz1imEtKwaBs/UIegR8f9/kui/D9YZ7IAfSZKeUpiUwidD7P68hgjaGweuh/d9IT3dy9agU0a1d3/QRwP3NjQ4Av4qM8I2KcQF/pPN3wqBWn0V+P29whRZUvTf7GbAhmdNu1+Fn/EDOzB8SzbKftsFtMYKUD/aCf6dfqWvJybLopFF9/fyWB/T5ttUwh60P7VhUccg7amHqBFNUOBBRNqFDF/WmO0vT+vlVVcf6PaZoDS/Ls/wj7Btfo9xXfs+ebsHqQRGWnub5wpYPNcMXJY1PSXrtqYxOaYh8MIkQB6acIdF+MEvg0D8o/S8I979Av4jIfax4PX/C3alNmMSyNVl7x39P42lvpYJtve6/z2xycogy/Ixf6eorfb64R36Jvf2y7+yP2PsfP2pNswiO6PXUTLlKOS1sa0x9/fdJND+EOkX7IugKijdnXNzRAX+z70y2vn7VjpA9id4BqIpbZf/nIhsk9Rcrp/EoDoM58Bh5i6yi22o+867PVphD9h2/rNye/u7/lovqa/XCO9hqYxod/xnfyDLtFCLhbMEA/HUB56F0+RiNmzr8j+re/cnJr1UwzxXWiEdC7HGBhgO3pn7qR5Mbm9j3CdH9/j99z19pleSCGdhRfy9bE8I979/ZG76Xcnvqbb+x1/vY0Hp7KCe5BWZRrIobbRS4zKKUH31Q0ysMdH1GWNZPBJrbkT/HYzr+P6Pv7+SWP9n5OkPjwd/moF/LYPriPXsvCevfyFuWL9+/m86nwpofaQFQGXfAmG7b/Hffft8VBZsvpUTvXwl7Xfy1/OqoUTXF41F+z6x8V7XXzV+kCzzwQwb/QbiC1hzMFjh+9V+bpaui9H3F9Hf3Sk9+viNr66Rr0Bde4q46IUbpBrxCIuEQ7M+Mt6g/90xgYISGEi7q1I0cQtvf5ifsTqeVXavp1GXIm3dnj6ZZS8xUiIMRYJGzBXmiYWYg/JmhrcvN60YuXROz0jeVlc24+MP8Vdm1SO2gdkePoBDxtMEAammfoJK9nIxj0f75Q2wfvf2hfmkwdhzpDN2qRaNbvdw7dEWl9E1yc1ey3SxaCkpRcYP28/gb7dgX/JTsPuMpzRvjsQh9qe9IfctGjHSff+Cq7x82e7tbHsEvYLtWNqlebtAnhlW6TUuy2Vaqxlv9VPuEHXCcj9i8LB46Mnp5Vp7RHqhlYrJQdZKiX25IrhMUa2covHeh67kjvl303Trm0H+KlV3oD38RS2BaD+bsDQF4yjRtoDevqsM8Roj9AyR/HzO9BaP+K7PteM1IE2K7Vje1YUHphHlzsvGaV2FL7+l3TbknXxlhJ8RZ/T6XqvvXweeRk913v+Xb9xV3dDm8olTKomPwPTutjaxnMD92S7l9peqYzw+7zZ/DM+k7s36ClyOgyor73vmBvakwpuiHDim+M92zPT2EvTG1FHh2Pm9H5etcvp+T0Xm9Nc3sXhO/6+L80thffVB1uEOg+UQOwX1E+j57WLCPcaOGzV30J354mZ95/znOkM9FtB3ZO9ARSTRrxk83+/QLDrNrhjZURjOQICjxlsBR7XuwP16ReZQXeQLTgP+T2vCfs++WXQP8tH/NS676fxWPY7MOup9rYyhSOvhGxm/sZTat87TnS9iO9Lrl31y9utP17Few+nb4yyjtKbMP6g/vZdI7HT42HleFtLPZjZpbtFoPcqmw0oen9MKS51NnFGcFXmTWP6T88R0rP5/yZiVfXvu19TdA65d/xfLEw1Ma/EZQWj9gaL5b+W78lpokZe/mONeaU7qdoZneEDvDUIbU9x6bIY6dIiWql4y877GMtHDdlYnGmT5Sml8V/cdnwRIktraiMMeArLxmbEoDcbPoK18XYIlOg+oiY7D92D9bhHEJv79A9Rk9vjs/tdIprt8FXOQdF0W31b5bA/5fYJ9e55L/yd+4zoWuOdrN+eBjF+7c1L9Cr/LC8hOz9Pf/4T6e7umzKFMy8zdh42hWsP+uzT2Etit79RG5fsXzXnOfiaP1974yj7+Vmh61xPlX7F7jKYoP+Pr+yhA5buuDfhHoBWGuHknnzhj2MskCkLArrZYPiRVGOavGfzmiP9hkk14HmSIq/xlSc6L1eS+7ypryWPgibLuvDe7ULdQNz/cr6pdJjMp6hgz6p1BEvjdi7LYaZZwTbqNY+vCmzYijBAb/Czh/9ocCPPwPrm39jgW+/GyXvtcZG/ll5B6B3E9Iprynv8foE6Pvp/F9n7+CveVJu0amq3wT+i7bfGZhBmUM8BsaD6ZRn/hLb9FbMl5lXJnhfwpJg9+59kf/Y3D0tx7uEOyoJAaEnnXdr5d/p06+/ZL/s3r47HoRquh00tWxmhRtM1f/djr9Vvbt5nLa83yeXfCnjw4fIuvtezq+/ydpj8dMGtZDdqtB+tRnsDoC79g0uVkdX/pPxEo0Ja5Yn/eX5cCcI0C1E9SVL+K+50n7vQ3+O9mcgv3+IYQv9pKztajKCojEegew7/wjtzKa28wYEzNVjORTQeuklTSZ+ErXpfiaBoH7TPB7H0l69Jr2ELv7d++Tr7Fasa7TNCfSaIO6XC7SP2/jO+070fR+pNr8Jdrv7e1+T1Xev0PyKc67eVNE/onstRNv22/idDt0LNxftb/GcsFWwLGjL6dl5bXrMzbBeVDNIlUzGn/qYOzR+/3yjmh1xXYPpv4Q7+1s/hKgtjsc+eK72qfcvZdx2npffV0Tr8RYPlzf4Q37PZ7Xgjqu/UFPa9+yeo+vfN6PSF6Pv1iIz1abW/523KmJ5UUcQcC7i5stdnt16i9+i1whoLZ9L+J7PoHWxWvYbYanueL9XS1Jbvz1CHs7Nkl0fhHT9An7fifY48OI1PxPa7o/CPvu+gfxfYXsLoZ6FUtPGErVnfxFmltfTHV320PZfCm/2kisfLlfGbVJ+npu3R9xWcMB0f8Z6Wcx1+18k8P4T7bA0Tzw3GZaTUI7yBiQsZ6e9eBJEVJDVLAwRdR9vphmzSCV3v6PY10Xr8I6SXf38X3r/Cd/32y1/hH35Uk5BCXJ+Y58TOpQ60NhjA17SYalqPv7C+y8ul+W1/N7qtclL66CXsG9i+J57Ad5QVbT8Xw9luuur1xXoBb/CHsEwaC6sXxO17Ex+E/d6F8E1D0Pr1KkxnofTtdWJPsFnqYMHHJt7ewla7f6CPvtaP8J93b2vH9zKWJ4guKic/cDvxHRzpH2dNfGdvIVNAQdtjeMEIWu/2EJ2od4n1L01Zc83zn/i5xna5qgQEqqxQcrK3Y3spohlpDOnTeOjpBr6RNDAcPfuRjR9JyGHcIV3T9BSpNRnky6U9+CB0a0cicg+QlqM33pJ4bF0Y/Wva032DB2he1p+EPYOqLTqPQogJyCiXnsyrUZa26RAQB2C1O420fxnljHh2mhGO5BPSMlwjEnKe+gp9t1Pu2+/nYObcGLfCPpFGCF8wJHpY9FHiHYIs/tBHXvto+hdMfkUfGYu9f6r4noS0gwPOywL7v3fez3qubt/CPt6Hyp6aTJa74Q9vlX7+EukbH/jOMrR19HoP+EfcjGn2NcIV2q+x+gl0+Rf4Jd78nf4vv6F4zOvYlbx4SPX1R1LhC/w9DP4CxyGh+M9rWs0w5DNxxVrXcWoKWRyulvMqod4ow4kh06Yq1IxVoB0AX4zjGOhoErLreqSgXS5KI5Sf118RJudDm9Ql1//HVEpoh/HWugv5LP/Eyr9dAVi9xXsKunuM9n0H0FYZ4fl3/GeUhBuTP3+x/jLHYcpuNHm1j+GmoaP+FPHog3lIWAY0+6DjnH7NWHcd2fpMeK39Nz4zlzCPgyfXOM1sDU6Jl+7whmHtDe7Zxf8Tt9jprk6Xze5cn3Yv4/X6B6A/y2/vXV/iKD9P8dQuh/vzAt2PfY+rm171Gd+gymKYdhirSFuMmXB9eM77D3NLTJR/x8vjzRInBMhnFW16uklqEK/a+Lfz0pfjKof8Wy2pRg1f2fjPlw5BRsFvoHxCMt+MoF2vhnE/QN9Qj0SM8CkkSfJMyrDhzvIN+Mv+XGiAjb7rynHkwY3e4zue55nIKmrIcZ1vz9aQR6fPfO/4m9+38I7TS2CxgeyhpRKpwj78ZMEFtKtn8YI7i9WhGAujaEFYNH+4KrA70Xv3f4RyumCCNC68zFWP4zSAj/W/T1Y6KO54sQ+6pWuFMNj60u6SWwr/ClJlGb3J7GTQatCaMiKxQ3ggCxr/E3YcHYh4dNH+Mp/QsrH0pObvJxW+X79BPv3Y/Jt/jqL49/Rd8R5J6PauXY/xUoZJPTYfdY+D+jSDg12pI2/2fjLxwjA3v2kOEh7Vowg+Evdp1ln8ZSipMvf0aeozR5Rgtdg9kkkx3qM5CYy+9s9PZ0kn1lQzwo4t3Z92OcYOlsXTf3+IskDQ+/4Rv+ludLlY7x99LpeEb9r6F8X7A0Bfx+Nf1p/ghr++M2e5EYsH8jKNiY+w4hDXjKsXOvN/y2w72W190aD93hC/mZk+n+EI7mzO/6fj6M4n+yY/4n29tfE8qS9D+E9B+8RyX/gjr+9TcTo8qn+Wisu4j1sf4Qw2UrDDymWJg5s9Ao6ciCxu7tjOh0WhJumxtDJ50fgrufG+jYjvURbxX2XYzdrRbpJWkKh/GemRfyJXJGksrmZSicM9Wo6wKRVoD0NFbCX0EbVFY3/T8IWO3sOZBSQCap6eswYPj+lQvsL5Ow2PwpSoEjwxldfBO0v9jBOfGS10aAmPsKnYmbC/hHys6eVLrgn6dAWxtqawj1d9tf4+tdP0vm2O/id/t+P99D9fE9uZulNyaCdn4Q79/a5BHsuxl7tdUwlfouuaj/hKjnON8++P2FQDjwygKJ2AdURuA1zgNXQWuAV5+pvo/Gc3v4GuJIZF0JmqS6RZjgNghWvpAnySXnXqx8N5oyc5QqAgR7HzG4goJqK1ciYcb+aLgFgQmtAa+9fXbjQKtQqrxUobIpMvpsLsyEwn6BrsH+EL0/SpfjvS5Wevi/df4/12rGwn2TQzY+klLTp0P4jS0tn4RkD2n6KxmT/E3sVgVP5tOi8IduxTBq/vwjTHqft836E+bZN1fF7K/fyb9bIWi/irD5ffbPQuyIxJHKG2GXi/MywH9Lug6L0Xv8d0PQbvf83p++n7CXT91zen0WX/0Erfv+I9un+K9ZP+L9uh9aQnfp8r+kd+Mr1QHoNh7eqXxnbBuBx+8oi0MBsdcYCh6VmCXsJ/thLWt/wptZsK2yWwLYrt8Icgkxr1pQSPp+EKGh0UW9jYP8JdlSa/FUB9P+TQP6GWH7ev2/jKD+ndvuz9OlteJoW5ZYe5fb2bVzfxO+QNmrX+Ed8/6/x3Wl+hrivbX+JnZ6Wwu9wSclT+vgj6sHXzUmR/V4v3eiPL3MSv8u39l9+yafbPhLff6f3v+P7+9rNoIbdt+n/N6d0qv8lo+wH+M5yl+NB8dnzjKrjOdMapuSxmdI7YmnIOC4NjLT7GdeZnT4T38J6D6N9526/zewH4vT7/jsSpXgdfj6ZeB+M9XvT7H/FegLTZeEK8SL2NjYE2m2NHiiofwn6Ft/CW3sS/m9j8Jb96fk6VcdvjOP3/E+6TP8I3587vri9/S3qbr8Tv5/Xe/07C64T9Loui7v8u3+J09PSdFL13qE+y7HdS6L8mCDw/lfwpYEASB0gwUsT07+wa2GkcMBRp/mD4zA2OOUNP5dlOOtsf25AqB16yN/GeqL9rQ+4zmnZeeD6T+5evUVse3+wl3pf3ZfxG6ff79F4yrHHzZbagcv2zGaHKGrYywhzU6v6H5bH1xXsOlrm7e4zE0f7+IuntMD/EaB6BfUJ7W/8lv+WaXXCe39kuXv8ntb/fr5d/ovPX5PXUvXTWEd0XvY/y0/5fZeEug/fybb/CfT3f4It4wfvhSRmZ299w8oqg1cXYGA8+aRLl2omAn+EZYENyWPhgN0C3N3iA3eO5TH7Dk6Bw+3X6m0Is+KNig4EAhgAAAAABIeAIAEWQkpjlif6t4Q/4RXvr1ckwj/l7VrsnofjKArSBpc5DtsaX8ZQPtIL2j2gbFUVUuK9e3711omuIwUeClXpCRlivGTUdNi4cFYGv9mjVl3EDzJQghrGSsgw1c38BJq8koy3XPxzXvJGb6RuXYhn48G2x1ODJ3lJtThI7m6DzxkHfAdjcJD6yEGwOFq7y3V0VNedT4qCoQegbrboeimGQQ2+/IcEm+8tTWf3el1tDNKwegH7eTPquGfhWoxX30dcvf7v5er8ZxloMrk3p7PQZEbHJBxdB6OAbB8u2uS3eMs/okdm+OCbc9ItmvLPxdjvX90gxYquK6d+frWo9bLIn3q9PjEM0JDDvbAGPtVj+Xam77g7s9fF5sqgZQ6i78gzW59G5G8CeMDZVMCVVclR8a6GS8RLMSJUkjsRBPfc4fTV9Chtgx0O+1eSIDa3BzzZAsw47afhP2EGv83alxnJF0v2B+aUG/GjBden/Ls/n+bpdC7UUP+xltB++g/QV3y14rfYyLfItY7nklZcfbdGKjCbB8CgbtXwjlVMSD0ywkig5IqGVOS4d5qmXofGPMIadSMcJxsSKfdFxf2X3UZ+XzGViOSJ738Q5aetS7COWReQR7ffLFrAXQmbj1JMNhv9laZE0kiN8bKitRkBg+6rd6aBkYjs1VQ4PeTPYi6tUCZY/SAfPv7PBBniDHGo4MJHxiDsszON+OgXyvtfQYa3u5/o0BegYU/7rXas8nJ16N0XkKCTegG3xXoD6L1UsoykhRIrqy7H5d/xXS2fuFPZ7GM50DmzFudMKWGs0gJCvKYVhEcyJzqIFc/Mj2mcL7TZU8KJzcxHCkDXpZe1zModeoEj0Tfmo1QvMYRKTWtW2EPuvPWNfoOvGX/IfJeqkMXhSTCBT36KyRnaYOpiMw/e4y0aYU3R9qi6Oh7+wU+VjYuiY3xDyiuubvzihW1oJOGW75W7T9dRsZh5uHNsDy8JqPvkGw1v2D2uBwt5djAi0OrwS++uJtx44PH+dGo9m5R9IN9CWD/JdqlJ7xkga+viF/M/OyhwYChhplUjYUZiee+nQPycEOu3y66j5OwLuK41JF2W2Q0RI/36lIJ6A2eh/LS/k6A6tyUYlsol+Mof7Lvw3yX2FPRb/P3WBk1uMOEZcZXT370SERg+qeYzsqW8rJnkksrQs5GdiMO01wH8kfDsKtbyj8TfYlfJX5eqxnjltEeTZN8BpCVD5jjS7fjsJBkQa29mByr4B2Bh7RfZbYqiQWghzJ4WozM8ptbIxfzSvfy+uwlUWyX/EfJfpWDF5bkaMLtCrEXcI2GuLaER+kP1dBBKw4EFnBwo85KP7kUyXY+svJl6kdKMpSHJ6Jb09JBfTv0I6DbMwvkI+HQGQbaGC2hIkW5aVDCWn4ngNzhCYbc//fi/l9fN3d97/hLQuvfEG9dwnQLzQ/CegEYQGB0D9XZf1VRgiuIv0PtKoR29B/odeCnRWyouK1++Et+xzwywjYd7LwQqmNtrqoODUwU7CYIfMtxIebNJoGKe52xHU+2qBtXjY+egeUl02W8nT9p5fJxioFUui4a1pfvAe1dmcy/Pu7vc6jexDSdqvLD8hNgcdMl/peFOWlZs94as13+MkNNfQGr6B8ptGbfUTziBPK6I2sgWV0xoYEDxXQcpkI1FsTKYe0uyKTq5UfQyMP+pgtYh9y3ouRRDpwTg2YF1ljfK8CFvzDwZzx3ymHA91OxDPW7vqwn88JoylXKTk07+2MnqXFWbOG7lLD7r4PPvH8rpcsWh8gz4v3399H6PxR/go8msL+pZSGyjQ2Jn8tf47Qdhbdgd/iNdgL3kqq5PdQoKNfqDUnxWv13GW/wfsHDxcgUDQ/3GW75VGNwmTdvjPWRkYfjsq0a16m4gQCMVMO6E81aidIvbp/Jf+W/3CPcJLLNTqJ1Gy3uXe3Grcb2MlRaaRI6LDmA0+BVHmXuMMNf6cvTkknYuFOl10nxGaK/MJUMJWgTYSwMuVyt1lLsW6SYzjELfVuMeHKrdRwUFxb8lzvT6AKPlGfo8KbChEX0GmwyiA/2ktuzjO4/dxoz/U7txxMvQ9i/Clw5d+i6T4LAJ9qaMuUMBfCNneHRrC1MBqtKGAlTYEIN4HbcFAbIA+6dk/41orEtMeW1xkGeXNewLutjIst1DLF0wEA8D0XLKpi2KqcXqRDaP9Bri4/9kru/2O4PuFuwP//+J0X0vCO16L3xood739v4i2wv2F5b/x/kBBQHi7WFt/Rf/8RtbDp/JfuxFvRxWm9hOxvLvo+dpjLC7+7MJRhbQUVpbkJEfMCOwpKkSQIbEEsO1q6DECoyFbM10FJcs9O58bcf96e1aKRKQcMdAfX+nZSuMtdl7vCBoeOl40p2CDxvLBjlyDXrm/x0RCgD953Xb/kY6xwNeWF5xmMjj+L88F15KH93Pgq79394tLjL8+VIgWpX4XjILSzrgdnvyFzChHEDKuaVqnQyX1RLpnDBR7NpdQDgdgi5iqvyDLG8J3yIatj6FehspRA6QKaKtrx0FlAW/xXvrfL19hHMliUIB2NATZCfAYlAGc1Pmv/ctc4JZK/JSKslPd1doZKMC1ncg3/PDgPQF25tzOw48iUG1L+7lSbxrlCLOnvmoV6BWGS4kVLr5tBfOMS+n8f2nUBm1DA7JIETk6/N0/jvd+wP+Pp30ffUhQl6sg0ku3Zp4T9p/pC7V82/ifQTv+L8ofzoPqvienSu2t75LooyXHDg8aKDlJjJXBv4CUBAyFWPb2ZwBK97+1WmX0Ju5eo1pPf3X1ytbmaZUrhS4Fbj9k6hR3X0+32TstY9l7ay3wUbBisG4IETbEZ7A+7xIf3HmVVm9W1F5yQYXw3RwRDeFpEcKQTfWfGwgVMMvg30ituFl4QuHXKe5Uy96SJI2Ht95bpEdGQiq8XXa/7hTjeFIQE+9OOmznoipHTLUi6au05GN6JOwYAq6qr15gV70fSwrNjO8JYZ7Y3t7Nvp9rjcrEh9+IVt7tM4JDv45psnUobVCVCKwJIwQf/LGW1WiLTmCmgaTovar9ATu7y1khDZP70Ha8Z0NkHVSKzsNtMK1ZlXeYgT0+dmRLS97Fd9DspSEJ1rzJPRXTRqGSaRmlXNHI8r0rluUPzZz56cjj9Y8DNY4GRI1GBa5FPcbXKgPf3CIDsvz3YgRyWR55fDtnMQ857Y6lD8uUf+YxdWZ/mW+fL/8cx1ry4fy618lfnfyV6kL8u/kKEaTDlEHsmegLeRl38te0tGs/uE+kxv/F2Vrv8ZsXzvMWlEzgRwIHZImP1VPeu6/k7HZSW5pGLuVDKamG/QnYhcGwU+0Xo6GJ+fyhi+DJaiUCX9+426I80IuMZqb0HppzKZsx7kxm/v0+Wn9VbUKTggC/R1qtIqf5Rkp2u6WkobtsmsJ/Z612Pu0U/z56CQaAtwU0NOpgbRWj/TgdtNx4U3vXTT/Tf9l6XfoZ6L3Q+wY4XPzwhtYfzUfktAyDEVBwG+WEfRlGCYZDDNHVsf73Hgw+4qy/Y/Ck7IfTQOih/2MhNjp8mk4+hk8xstjfowU10GpBDfIix5R0yr7TtjvQ7X9AT4zQHHxCsCDKGoKJkUKzyj3P8bOBG6Ou1tOkvGszwHucKdSPRL8qeW110OlQNrTotkAMSenIg/ye/QuRtoFMUSYeYr6UgP18B7kXhT37/v1cEP5uvIXbWEegtl0XlJQreshzaf4TtqgNqhIIeFJLp2Yq+cg7KDIwVqZDqF53INHLVYLFmQBeJw3EWKCf+T0fb6XoR7XQVUiBPsBXf1Hdr0dpBM9FCHQXTfR6jyQWd9mQlqrpNlSdGNlSPcrGZlOCZcHt4EH+w/49y0opNtT1MQTW4jj6GZoQ1h4pFTBX1/QtiGhm3/q+Jg9gyEuy6jY44SKkEzAonIJ0XIPPd9aj8bDUcgwFU/toOiKw/dLOdHSwvIIxqMtrr+nl5HW/Kegj5qHOh4YUmbboSYI/QwVaHPipaWOx/Mgn77fxdybQV/oJU96NvthLLD7y1fbSMsoU3hgNsos1CV0d2HuTYEaMTNFK4zVpxlSbsabDfe1lGSf9C5VpO90/NaHkECR7oP356Xv9KhkrLrYQItKHVws9UwpC8uUjY6p1GJtg3xOgZZy44agZIsvVDJUfPcg85fapNj3aI4PrWb5K9c3X4T2Pv2JMmX0HtD+wyd/2DNi5r/wl7CQP+M9OtA7KQEJCv6yodsT0X07XhCwFX11Zfw4y+vVXN77j+6LZdBboRN0uNk0D6UQLGd0GmdBB5A3e5lCtBTaxtAk9B7fEbXv8I2/ff34yFBsW2sv9Le73snGfYxW/Hhv338d0dv77r+ENDb95c/e37XxUVtlYbb5/1CFh47EGhvn6dHc1jNi9BJ54MJ03+J0vf4/zVQvrQNl7HWhH9GQiX6mFkuyo0AvNnJabivwhpb8xJA+85Dd+YoQpb2tF85uoQ1+q+s6fVfCEwQOxkBD+QhS8ZNRAUau2ESIQIjRJGE0vpZfEH3FR32OwOyGSY/4T1Y0XZ+L8pLMMLFSJm9C8vvxlRAjL+2qhK148/fioQ7W1gY8f7DXoZ+/8X5CSB9nKum7poYMuSXmDRzFCkstJuzpNYKcak6FX9LXCV+/6CPtV9H6F+q+7wne/X5q/aFUr7/hPboaL+Te3fYJ58CymDM2EzEpkf45Wm6g67enW+VXfffCl8GYW9/QSjV/2g0kW+A/0UJYtbQwO00rfv5i3m1rscstXLoVsTKMsM92TFwOxFRFUYB/EX/ZFz13r+KlgvoB9oJ0F33uVe4/X6i60CoxSoZ6oOZiq7lM0NnJjrBJ7QgD0yF0jG/x1WF9dAXx9vt7B7/CG5iPQ+it0KZ0M2D6+fH2OkfPwU+1y0ZWr/F9fTJEiRVDXta5u+7nCMVmr/x1InWN6BIBv9C8T9+l8VdN9l06KHaK+/IQ6/p5X5R9tkUFOlPId84joH02OVjrBiWiOJ3HB/Edq517+FOwiMtHtPej7fCXe/92+3ThGsTuDzCO6GnaI1a0hsLOnU2HHGNYhtPjaio3x9DY/3lu6W3cpxuZ7JSCGWz6IHfk2pztXsamTEjePg/Z/ovE0XTVtDuKy8lH8kRs85Kg/xFmalK1+CmgY0iPR7MlYCKcqT9sqIxlgh+xgL2t6XspsIdqgey7+al/EU+3/CO9ml02drwhYG/YDpTB/qdR1VslSHAvdgfkQTsv2E+bZauEPfu+g7uMJb+4rKEAY2mJM1ekSxdSJ3TSe+/29fkWuRk91otf4R2l0Fr+T4ItH98J++x/HZUHVD6fVuPjo+utCQbWjqYMDLXo6acg2h0Zobh0aFjHgk8OuN3/5AwE6RfX+M6H0P7C62S5ev37Wn8nVH76dJrLofuCfb67Zf+yFCG+noHMZCNRfv6H47aQYLcKYGU/7QLcjXFVS8fSVIaEz0KO7YQ75GM9Iz3vva9A+2CvmxhorOkIcZ7/BBQGGe6QKBMHOMWUwku/9v4yzcbpfs7SOYY7jPPkowWV0zCBpiXH0ymO4RsvTdskpl7rVkqyMsKbAdAWfQ8lw2wa2h8urDMsCDbluzqO9rav/CF2OR9gaHYDJczPi+g07LsNTQl6Vn4a70i2D/hPtN97NwjhpbzBZXJ+Ws5LgdLw/4N/KGPQNlDmONfX7l0V1aeh9IjY72+x20vl9JcteuK27O/LX3S0FI2OvPhgSdCCcsNa2Qg4WVFRoyn9jqIg/3Fq2seoN9PYuhmQ8OQlwk85+HS9PmibXzZ3EaS0n7wUxFrVqgZCD0Ppegdg+11CfX2Pzdfi6L9rwl7zqemsI6HQ+egcgl/A/jqAwhedvyS8kpzWjkwjvb6dfxXpwSLzatgLEFLsZpgCi/S3QdrtyH+UcbuhHEjeb5uSRmini+QOe51XfsNnwEOsio6pLv7IPS6CkZYl1NZ72MkRsboNA/xnaHWthRjpl3KCAI2OCmqd/cRELD2HRyOplXQXglut5je4r3Ub746Q0ibvQcH5HQfUd632gkdBdRHkGCo9vv6rQMNcNx3pafYJBZMrORIZK+NFLjp6k3LbDmP9Ar079nr7uPyokdXRdq/LRr3qEfYTdp7X4K9TIv1Rdvmr/N1+Cf10z9tbQzT2d76rH9oKZUMOLooP9vjNOLruCP1f47Q9j3v24ekyEH9yEv4qwfX7kpfy6/idF8yjJLQC/i7B9lOGULwVcxpGYm3DLrP2+P0LQbB7BsHzfwpsGYgzqah5xLBJL2dhY1KbLJSfbfWkFLEY5MIiDYG7/pIt+9QETZaU784ah017lJCW+1f1beZrR3230L+y79dWMqVlYAwQTa8reCId/BK8bMgYw0ITQ36P4rOIvKSl3a9dtDIY7Jq8EB++h36BqGoPit+kT+SgGOYp5Va0rlKi8ZGgslGLmp2hKqRgbSvPWtTEF3RzfPf//kllLhjs/CfK/l5UaEJaYHuCw0OT+4tK7/aGe9y5or7T8kT3pfxeSvS/CfYLm/xmUIA6KjOyELhxfcoQHX4nS9jk5L/17aj5tOn2MsD267a4yEAx4KsUbVqJ3/Q/E0ku1LfmtfT5YJ/QNvx/l7D3dhO32PfT1oYN7l898N9dab4YUyjWv/hT0J+mxllH0nrjvQurfdulzhP1Q6fwnt6dAeUm5eu+lBVZ1xwS9JLsNyRsIB/47spCC1BH5hH/EZM8GoOZbiKwx/cZmlWwEwtxkkMn8rVa0WKK+OsHQMVFadDwc9SZcQoCkcYLzkowdoKVrXjs3SG2T/3f7wBfRmVAq9iI/9J65mEe77+luM7Tz3ZyjKLYGwab7jLO9proGyV3Z7OsZ6TfrysxlK8Flq+lUbMVQ97vjKEjQFR98XKCBZeOo/XX+EdfVTAgD/vR/iZCSNgO/0xWj+/vvlvkfpjQjklI9B3f1SED9ZdykN3dHS8IUre1+9UWL77/KO6Il6O+VH8R2W1+9P3N7+/e50YfmQ9eyQ5GXvwjTTjDVfv9+HVr/ib5tfsI79HseUQH311ubsFp1HSusBMphEbIm19R+g6qUo1yw/dLf5dn+bvtSoIz5oeZhKtwYvAJutxlL9rQugP467Bfd/0FNX9kwPnzv3wj0ZwQO1oTWumM0ncgW91XVfxmX9UpLnHE+MtfL618E/afpd8I+k7vfZ+Euvb24mX2vF5iVG0ISPqEcrNDapbw5y7iEQIQozGndGhFM2JpjQ/5Lr9E99wnu9fTqToH1CXsGwqf3Xrir3oefadIIX5/v38I++/d+bhbc7+K02BeQ14mfNhdPy9ge/Gb5AxmEHQXRv6iZy/kv8VlY9WdH4v2d2enx3nDAWbdCc8avxmw3rlBAF8rFryIdsN+/QL4zYrDsD7At5lPwh26Uoo7Cv8Z0pELHsG8yUwj91KI9LHC0feabdt8rGd7D6LSlM8vJKuKl3Y2/fpKGYQEAY3qTEf/7jDzA+m9FKvgY8+UCAWdBDo0qc1E/8Zo20+7vnX6F4RtfYekh87H2vv6eom5AwWdPr5vS3dL7i66cM/hoaN9KrKqyRM6JzDt0PNdjSD7pLu0jsvcRffsLx1hTmNI4wfTm5Lq5n+Cn6AL3eyQ/fCm7jL0d7dgOvQOenpG4xk68zCPZtUNgLRUCpzkGWCLBrr6LofxlisdDofsCX+X0/F+Q3vtvJX+K295U941gn377HTBPbskyM9tu4qa+8xH0Cn0ty03vlkROa9PL/TGetBwg7q7AtierAf/VAPN3sKpb7b9oZ5D0XUI4Xog3FGhImThsnSolkO4gx7ddckUEuSuV6+Ebs9SN8JHLtZiU6DTZYztdMhMOcVmE3Ugo1sDoQI9JhbiI+W33GaW9fTsD5dpJ+28Zr6tRtsgV14EHMtMN40yxG+m9xneFpuyrznOogMPJLQwhSRX9pBLTWJKaY//0sO0tg4qkZbA7zVc0mDRv6BXHqZQmN+mMs+7BolLQYeZY9JDrJDFf0DDvNC9ol6VRfGRstOgbZWEFY6WYwelg7bZuSVND6g3/5/tf6dOSFOVIPWpHdnynTMCDAh9oAuU/+V4xPc0nhClu0r6nxu1r9MDWu1uH+oOsFPI9fpBO8hpKly3rjL5LzLYSZ4mqvCB570b49EJkC6hqOPeCG+/aVTaPJappTardL+ENO92Wxv6Eb6b/v2eoQ9uwtvy3tlQszWM1tMFb9LQE/hLh5gd6fxmhlJsQofsD6VD/H8vp/sfvotp0CXOY1hfumFLD+1QmVM4l7Pi6K3TTofj/d/Y6fjL852bHlGSkGXAyJ9/LpHKBDkG2Q5BAU7jbLPfu2gqjo24Na9jLYjny8g2IKaVCGdBwSMvftziAuseYl9G/uchHx0ZJXfIWnrCmajLV3bC4zcIFJAuJCMcrJ7Twv2BhWmff4zdRMnXj1pWRYGmzw2vp7MpeUhOrewNAZc6SxDBVDulTpDSHa5y/rBSDijx7zkusr26ZZJOCvETYxpov//x/2Fzk9zZSUIv3Y/x1B9P0JFpGik6vj/r0XKLeM/HByeyXlDpRRcL0MxvT+7miiQad+hnGegfdoxBSS0B0ae9xulstnGFDe62UYth8kzWv9OUjIR5lpS+/VyzRk7+y3yLt+b98N9tZtJq2E/gRGYG92wbCwZ0DM2pDL+NDmKNe3Yn7jbPGXOEAcLVDrhq4ixdBoId4hHK+EzjRndYjstH+E7oPC1D3rk9LzdK71s2nYfm2X46x2G12Gx/y7DpeEvXYXwjsC7/ZeOw0mPbTfv8R33fXYzoGxN2ORK0Q067HvOBNGb3m9UTsb8rHQI99+4JNv7aTjNDYhiY9DpYgJI8GREKINka8Z7PIpDjATEcg3nNHCHlpEe7TVUsjGXMTTM+PoIbNWeg45BGMFNCmX++8VqQJJjHEy6pSPPbSHLF8zHUB+ftyPv8wMH+db8pFXkpa2lXx0+GvLfu35Bj+iaT8qG2EfZz5jeS/2pxj4GfPy3+36EXCmgf0DZ9gI0pzFJc4H5mCv3GfQtoDvS1qr/75b8Ip1wjqEDX1hKH0iE+9U0f0yG/LGTUwIeiFCZtpodUWMqekLz+EYxG/boHXS8ReAWn5davnsbYtNhZlCOVVFWBj/f9wRt9bKXBgK1/luvJu0hlCYKMODgJgsFt5m+t4GQfMt+gw3srRX/peFN0DLTYLtZ0kcI61eFLJu1YMgwvkgSD+xt4OoyiXYDW5rCOPDto1w73MbNLxmwJPV/7ek9AFL0M0KMm3ty+Nghk3nNoO3tFgWuxlOnYW6Ib9Sh0P+EK3u37H39E6/Fel16N0H3Nr9Vwlt2XXxO3sdjbXH6F7HpfkpM310PjY+H7LHX4hfqI3oXv4r2F3rUZt5XgmzKJv5DVB8vypfTpW2P4xYSW0XbsWhw3v8iBVMeM6IUAyiL4UmAaK5v0BRfCNAMGv7POCAPo5UsX8z3BX0DMRh5akFGrDH3xkxdF9GgQDvU0oH5CUO5KLTBBxonrX2Y1PSRqRfMm3/KrjCv5j42urHXOP/UNGwdfbq3/ovGSUwGcWHH0ufGHDYv3brxk02b4FA7jU1I4JDMnLuG17Wo+n/QmOtAWUgQnOOURblHkKJAKl44T0Laa/CHt92Kg0Px+n3+n4KevS6Dvlrrq8KZgwMdBE49CeBHXx0U1oR12D8sqr19uFMUVSC1pLc1yGNgVdEUU0BosPgq+36r++P7HYaEx0L9DNGmZY52B6XZbaB18ZSHWfiZH3Tro/wS40np/17egl0KhMf4zborD+xxoa9+J77+tcEfe3muyAm7mStwew8V0K1/Ferf9yS/bJN6UlxOgmXt7gjtevvfu8IY+bsClYlagrp70LGexp08rLFvY8t5GTERbQU5aeXGHznzvvTv8KdCkzLRWBEBsT6Hr4yknd9t+3MbQfQyhmINDrewNix5Aw0qbO8rCH3ScxFSfV0D6CNysIA+klY+mXCHsd0eqKX+MtUtUjGO6Ar+2OmEDV9h3YMog0PwRdo29vwpYmdEzuN4+wa9oVggke5ldt6tJ2iQpVwjW5tMsK0IjB4SSuJTSt5+fZP6JN6X46h+1z/8nsXhOx8jNB/FdjtUP2K6dv+P7d39D+EbD9jyBgSIyoPxNlHTR0C7732tFBZ0Hfp74fCdfypfF2+/Y3xFhev7r09MJd/Y7KIxPs0/tE6e9duozqyQPKY2/byv3UQVWPhlP7gUSabAgKXPpCO5AX/qYsKwdqoZ16WA8lpP1LrcKXnOGcW4p2SKwHkE3b5g6vcql8c/5d10HwhzAHai5rthOZuU7OvcPX3ZUqZ8VXvGaRmnwQFXXId9sD+0itZi+23bNHaMISVeIX+Rc/f9doYHOBQw+Pqg5i9liTO+sZoragEzetvmB+a8Z69C6f2aGQYTkvNHThgYPYFb2vqM+i10qMlykFi/E1YZod+7oZSY0Gxv9+z76LZ3+FKLsd2WQYPQDs+Cvt+m0nv8ZlHSm+JlQXtxuVWnCm8ZUxYGfP2XZUul8f7nfovIz4U1t7HUqJceOgfb4jT2Jj/BXlUbLl/rfibJjazKWUD8dt5fvdP0JxlMt+36H6f7aL2iMovfbbOI5eEfQfGwos6dW/wnrp/aEegtAX3vrk91megtd6HqmCTZffLTMx+L9iof4jouKnK/rVOPoDotguyz0Gi/Gf4O/zQIOjAxIpLca5c2yqM6r3pc2v54LOcIKTdgqexN8FmipqrB47cYNs2+EO5I53JrrnFq8ZnUpfdNjVt2DoWoLOMmfoXLe3aGctL30+atl6CXpnz+x/OxsU30Xx3TunSaQTSaLx9lT0KhysyqvG6L7HGhG1yf611/0M2/fMzwf8ZQpWGNPewNgXt+/b8E2n2f27xG5fbH/en+O6KvQFYetS9LZouLpfvuL9bBDizphL2Ewp6fBdTUb/V/hL2VHQV7GPv8d09AXdFfV/hDt37D/iOj2n9F9C8u/pG16uh/seuv4mVefrq7/whf62/2SCQeP8ejlG6rGVhS4jhpWApRUEHikwpmUuONgRNBEcG6aCmwIiHbK+n7C0E23xmswQhmo2MB83BpcM+0g52QIf5rfvtXjJYRegMsttdvVYy336OhMYGtVzwvYR0/fYO3bqM79xsoNl9D8IX6f7AV9jbG0x0BdMOd5RNDAb9f1+PsbEgJh2VJl/H0/OeMhysDBj9jPokI7Nj8i7J9/Fei2MkPHdLp9D+E+3zsVy0cpnoxPb3Fek1/JMb9+MpJcmdq1a9Sdr8Z9HoLjo0KrBsIqS9x+joBPYV/TSbpnDlvURv6fxO2tv+K7rS9y9397D/LQF1wj7NDX0q2M636f2tbXcIUOg7H2v70UqSrUIe1Y17otkCGvXsdFeRb7GTqKGcgpVyvTjHMhO9Q8gjImniPjMagQ3CWBzcazXcXiJzW2rfHK9dI/tEB8Zt+12Hbtjd/8IewvcwQD/hK3o+tXQzrQm29nmODwnW/3Y7fsdyMvYU0tvdWELf33mM5eiE/sR5O19eMzSoWx+TGBa9VYz1KGA/Wndfwh37ew/36D8fJDzT+hrib/T+Mv0/00/uJ9+9YpjNqkkMkT6C9qsTBTcS7vppffe9l4jvsP90H/CXLDT+vm6VcnXXEPYXTxIR9NL9PxUv8mfj/SX2X698X0nzRetMZzr6Wy/Y/GbfdP3nZs7VRl/01Tp0vU3JvxXqbOSGRD/Y9gH2HlIu8ilzdxkNWe4wJTEVTQGDeWxz6Sb45yz6TcOSqAgJJlW1jI2EBfaQcqFB6G3Nlg7psZTY3M5Ge9LUC9gVF+M9Kgvr18V2idn8KNnUIEAqAAAAAABIeAKAFWUgX8NTeuG6te/T2L8Evp3YV3qub18Emg9/jIyDeT2vXQaz2EeJrViHaGDAvH2XjNtpw7u/g0ardGva9NBnUOCL5O9cV5Noaf3MGP8Ck1bvdBTjMnCOG7WqtBC8cNwereqXoGQan+6Xazc3PGbLe3aOqa+Bu0Ym9eZu3e9qjxteMeSUYyJgwYj/XFKkSLnZKL0/jJ7lAhZwvoZoU5EpFWIdNE+fT7/VNsWGpIppuW/XKbkX65tL8lkl+Xv8fYT8hH7B+MwGNNfnZYaBhrZfO3dV371yel5N1+Tdr4Tm+eL9cu3+r7zRkZTKKdt6oM/E2xQHQmYS/f8VuQ514i4xnzE2Aqt+MxQd7QykOrFUnue65Nmvtwz1t4Gr92nfL6rm7Dn6t4XVsct/ZvQvGdbIoNAGQo273+L3oG91p2uIckcXCbaMI1ODMsjat0karZ1ay9L94zfb0er2DGYryaNyoOxhmsapK7LeQ7o9DfqJqDbS7A7HVSdAvq3wlYF+74I+l7jRhqbA/whzMZ6AX1VX1euTf4j4/b0XYfXBJvv8FHQXlg/xloYIPuGwKvS6UfmnqoyrxnZdtbVVtHrkEwSyG2nKYO8oHbEf4nzrwcwQ/d3/N6+6/xmh5F9jlZo2P+av8I0uv6+L69ZYs4Je7S9vk9+hnuPQPemGnVodCMHC00+wz2A9lLwJ5toa899srda5mpW4yAJ1LnB3v3ZNBTfQ7fZXc/pRo+quYW5gWFoeP8SVbP9RfxZ00/RXeYROao2haT6h1a+Ojjvlf68pt4e06Fbsg+OEMB4FpNBzvmhmv35YebXKh/4yC3WnQBou+PoBGS+ltfhGn9EgmF/N3kt1cVQFq1/FaTcfF3Q7rgu3+gb/GdLx8dY9HF0+ECIIMUW+xliWhCl6QksNECsZGy70C3SO5noKw2G/0ClWsyyS2xnYI0ae5HPKjDGOFxER/BlulOCMJXLWlT1yjrz39v3Dyd+l4Rte1l4Yu9OjheMpKW61R/bZt/wh56XZBy/btC330XxHrf4gE/rXqoICVk+Ww/5t6fi7+/Ldeb5oygICPWdPpipcEPncl+rR4mnL+RUtmRkp1oLge4YhsYBuMrVR3E10INPE90DToOF2dfOI0UcpaP9uMv037rl6eIVNZ/gt7VK1c+Tf8nspbohSk+jodzQZNBmHsdA7C/N7CyOuS/9a8ZXFeQM0/wp2KilxBjnaxCZuUxufGeOmT7ndQzBKBoDGx4XdnjMke9Lff9gqtaNEcg9nsdIfoPAYW5LEO7Ir4ItlNGQTX1l9rITCfUQyuH1FRlUUdaQQngUzHjix5UHv4TvR7+UozpWrLQpFyksKX6CtKwpjgxUqB17szmJ5QEBC3jiz/t5/i+9L7fzex+Xr8l/5OtcI0GGoK2CnHfh9tGwGHekBv+n/9Oaf5p25GbPf3z2uMooWh1VrH3gdHIiz0oDi6EAP77zrM9unpr0GfE5qNG/soGxVw3O/xNChmf5n40z1et/F7N6/y+uCib2akKJ9i6fhCmvenY6+PoA0B+nnCD8ZtM+lKO2tfsZoLu97sel9V475bF1wS372tfWq4ux/f4K+fl72H/at8KTBB7G1jnaJhni1fsTtzFGaFTHTK4FKluPMHB0hrtJbvGR5POh1m9LPksI77YiXIFXk5boWmocgfXHG4ijRsHuGjs/Ge9DgqsJhRv9F0hajLVgt+gF7MaIVxkoy8bxJPC2T4QnXGeH8hgpoHTHRDO/b0wyqWBZ611CfBE+upvfFbXr1cleuT38X7HLQ6BeIJ4yOhCbad+kyGhLUZSSdiL8nz0C8Age3L/uHH2i+n1meN8rcg+Oo2LYAA4x6gN3uzJ2wg/3kOb+pF5fXydLgn1xfnGDlDAfi/fsPKQKdt83sm6L2m+L7F7A/N0C5SDNn0qykWN5coP4noFsC/E8oABpekkQvsopWk3u+bXohaFT79kNy/Gd02yCBY/r7/BXo9Kz8coqz9c6GXKyODCo2Z9U+O+YYRVj0JcEVH8vjNLsyprBuoCsCjXjCx2qhSgVe80aFo3CzW8ZZU3a/HC6ZlsvjO0U1cRfTtwuH90F0YdVSBqCzlbu6kIT2xvGK8HWxlSLzPpmm2BpJd0TG0N8nP3/GdwNk97wQ0X7crG4zQHKyHNc8ApZPYo3BPuZf3d8vN6Lwpo5YrBvUj2QIZFYahsA31z4RX/4eL37lPZeKrksN75qKoo//L4y4247ZJNim0kueU0Ov4GkmrhcrM/HSmyL/v39l11Trid/SriN22r3s5iFH39gewpcQfhGyfm9VYf5qzQ+W/8T7Gz+U4R719PpnEDC9LqW/fN2BYr1kOP9km1Jdi+oU23p0ym7G42PkcaQZ7adB1G9C9fGW2aeULhm5fRVklf6xMhVR0Kn2fjNpFqPb/3fPhQtSSh+1p42WziNsZi2v82+FO97A+zmCCQgnU7/dgqC7k9dZWP08+U79OVpvfsyusKcxlLEoiOJ0incPAyv1Gp7cxICRqP/alk37E4pZelaSnxnrKxwBUMm+YxVKpN3Rx9nXFDJ1t68qnGB1/StjvdqJ5EGGSVhk5vatcVkJkH4DNDAiGo32tRyVr3/UZE/4/yXESrqfNWmVhysiH3LQfXFxXCGODDtYzPdahneMIY0HG3btm+H4T3Z/8QbgP9X7V/r6ufN7fgl2Pot74i1+aviaXrQD+7fvEFGXToKFYCoDYF6Zc8dtUdl7/Hd+9n6boZvZlVPfY9g/whdlYDvsFf6v83oPBRvl2A/zebZaqsST6GYaWOwws6B2jMMtBBgCDqu9MgnxfW+lDI4Xq0MegUDp0UKW1S6dUKJjeUlhLv3ukViM/uesuQneNs7UWxKFACNACWh/tbCaBgiJAQp4io/gZP/JEJ/9/ZW3Q2kUccb7jnS5HLyjELEISKjRIuWoQ2aybHa0r19oaapvLD+O4JNTjjdzoH+6xNegeacGfBVo7tUvCYEDcI5NCC2nk86+H73uZGnLWmMdOHeCB/WUhCXnlR54mMZGumSQKdkNkSJkQFGkpSOXmMeBQoWEw8Gj58Pc7l7A9lM172b/Oy/jGUiIonNIUyRWlcVqQbQcx+wKOG85st8qFT4G7jUnslLIgxW/Jj3Y+XwTD+nLbupab4RkUvzK9jGNYdNddjO8zFcsmfkCGeuyjON3IM0tqq9h38HFjQ7RsZgg22P/KgsjHaSm7QL++9UL7m2nDrlyq0U39bYzDjtGGEL/Hz9c48jUYOkcECu6tAcVWhvlUio4WETEnOpXnZ8wXZQ+YTeOnoNxcp2U38AQP3r83XrXN7pCRGTa/Cfb2A/wlzxQO9B+EdfsDS+KiPfrmiMxjddl70vxlLKMmpTw8ffb6RFUXhTKIs72DjIHGg7jjVSOqB7j3p+yl3y83vKtaMk9yhS8PBYbgfAifT+ixfsl+opS6A0UaXqx+wtSSHpJlgmeDbsg2ZK9Qk4g1srWKwRU8fTW3rRgbYn4P4DMp13/K25LSbTZFY2wYKaGf2oMi4JmX6WSIVzY2K15j++w6f9NNDKDzlaV1plFynmN/e5QknAH4fsDiFdwgXC2nfg+/7CN9vpuy/hDtB4RO/Sx7P8FV3e+9nR+yrsXa1QXvyqNEbB+rf+yokRrJDJmv0Pu/Q2t7+MgVLMusUjuBb2OfmVKZvRcA44HWNNDbDelg/GZo6Y6CBN3sKrOdJdqLsbHnX3rmrorKbGWLKJmZNWnhlWnZ+Yy6hahpOXgVbDvmBHq4P2HUl8tD4/HQR27vdr7pA219TFGkKFRYWo4ZXQY34IcA/3aLpeB//N1+E/Un/ia9dfEX9C/Ga2Vl9c4p8ToNAq98VfpP+M6BID0AmWZjlEfjKTATATB0DHiyHHnBhqFSALuGO18ZA+/zHz/2AvZNu+/l101SCW6Ho/wnpb3+CvsH2ek1fkhC/MwklR/JF+WiBMFDy3WjM73QyfwRAwNhnmU4kd7W1F6lyNYZdJgo/AkVMjf90D7tOC0hmEwNS8zrMHhadHP95L1BZ7MMMUcM8//L4zTR9FBB+fi/uG6feLjvqEejATM3h9/vKSyCM17aTRF3YKJhsM3GmVdAZtCbwMw33+EPe92BW38R39/Fw0rXQz/Mh9l6Rc8Xt9+XTtJeIZQpPnlZxkTMDtYqDbYaund/xdR3Ooz4gJ6B9HS9hTLbrqebA6WZ9p2dCPOK9gcJj7QeO0z5HPGXAly/D/+/ho/gPI/VVLDY/z0H1Q2hb4D0CAeAlHyuLDmPEFA/xO0BVgF9fifYfXE6kKbQX5KL+EewF0F7+J0VxunANAvF2afs0B+Xvu8Iem920GgJ0fjLJAf0TAUZj0S6xMNsS/xkwgJwAAuEL72q5wQJdgaL+EdAL6Ff8Z7pfYH76qq3qyGe/4/35qb8stvpJzjJ8ZF7rCyIipxalYDamcDgEw9w972d/Z19f47ff3/GX7mj9zOA7G9g2qdLjqcXHbiA5ci+2/cFv0h1BY6Cd8EPq4fJv+EMpizuz6HS6GX+39rZffty20rOpPuKsQz+pQwI2maAtoZKrQaDHRgoPs683QY0lUdGx6QKoI99rznWyOwSPlXOuzmb7/GaPcZ40LY7HX8Ry2zpqxj6vifR2vX4T72vUhpvfxfQaKN4sd79AvHUl77s/xewP3f31+K78vLnhTISyGJiKWcVZ1Iqlym/xnZzNlJWA6DQHR1+N02CdHGInsP9JfR/who+89UDIIH/Nzv+EOu/QCa+qk4Ru9qQEA8tG/xXd2aBfjPR8v0fo/GTGruHaYjpnmGg66USg/Yo5FFZJt/zej8tK38Ele58Xq/a+Jyw7X5fa1dBfwht230bD/gioX7L11GSxY/ys2GeseGseewMVXF86Wf9TbKhkqVXr+kN1jMsbhEG43GqTCkTWhB+g26Y191/X9PeJYydC7GWqWhg71CbyKQ2zX1uVazoXgi8ok/3I/63qPX5Ol7e+u9BoLbioI/d/hD2J+ypJeEffSR2AjqKF4Ut7vZYWlmSzlSAAw6+FMxEBM1f/v10GzRDLjuCANPoF7/H/R6Du965ghYVux286T3BVPC9/0TmlIxV0uaBWOuhm0gK2naUXXkfHIpY/u/8vr4r3vvi7ff0yWE/fp9hHGD2q6xT26BUWkC/v3r6/slL+Ov+HGqN/wtLjvzrr9P8R413AMdbvd9TB++vy+yXL038Zv+PnfS01U4Rx2L4yNjghUPs69C0tPaB9lLt+skijIZYp+r3PXzMSqZjIBf3j/1dAwLZpa8fP+O9ib5T2gvm31p9Lrt0zUW+U21TEWC9gf4Io2Jn/fCHsJgfv+L9Ldh+MtbCGEzsYYNBkQB2J7+z+MjURD8ZzqwIo4w9AP+L9WH88J2voFulCPl/Tll3uMtW0ZbWhFUDIIFuVOcYLg34KqTN++0YJ/aaOhmrh1WQNY3dSARXfbyEH0t++i++/wnf6/LX9j+fH7v73CHr339C/b10QdQRyk5mdrHXecMKZcdaJYBo3fJjcxjzqPkN0KuCLvr72adVCN+7Vpla+/VcFVD29/RV8dLTlfDRHg3HsovH6XLM7HorChL9cS5NXke9BToIJOXYtoKpqvOgiAlehwUoON2W6F5/zPmvjvY8vsedR8TZ/R1wRei7uL6Y2Z8fMVzCPyxXfOIGefKXYf4To6Wy/CHsaLzSYCqlIlWnzF0/GbwTPi/Y6JCgvg+Bv9hK6L32Axro9Qhf6BDiLQOC+FN5lD57ulvXNCm+wGnELDWUjAg3N2DiED8A76GHUZGRhbQwEbJbJ82aM4fcRr+0M2uYauh29Ag2tTDqON8OtRlF6+B/E0Haz6I0LMRbQGnzfhfW0MwBRsCgPhp1yozeEEEDIdd7DHBKxM9o0gvBV0D6tNdOvGaJHv9B7H3GeuStjZsfsvhHfaZ9HYfRtA/x+xaHtMGj/H+6P2fXjLK9lTrsWOHIdkJgxUuNy0h73jqoa05o1f/4inSs+ub21y5N/BNjuWBHnFbau/W0sI+wLoJDtHEGV1o2k58ZzEjKTR2cLh4pQTvV/wXu6b8Ipm6GilA6VoZISmb+gOk2jigamyhv08W2lPmNLb8f8xxn7BU0L+T2D8JWDZ2eh/EX/R+P6B7AUeOfSVMEnnEB74SsL2H/hDdfYEVbBIBeEdugnlCBa0kPx2Cj61uCYf/zZiGJv62W4R8bjJHzz0cIxnkvGWSwFwRn7TwZm7dV+ciyGh2uvypuWfPPvoHYOSbnatG1/htfbu4ad/Weoy3gI5B7BoBVWb7B7jdA2DOQWkFDDHPit27bZjtrVs1equP0/+I9B2TNjX+OvIPxpFZhb/GSB8ZStTfd95FJfoBdp0C/GdJLAWyVaT724yP2B+h+l0bsF8T6UoVsB+SvyhQl/r82gP8frwGzN/LXmHZ1gq4I1d+joXYct2hiyLsFGZaY9hChuh2EOiH9sL/Js2fwjp7/dO0sJU81s/4U7PbYuy546+EtD+14T9ls99i9aO109j+72L32j4U2OhFHBPvZwUYliUGTHgtb0xWg9tjv47ZHhnMff96L95R9r8vr4jQWwf8J3f1+Ps9mw90mKx/FzwQPp/gq0LY7FMH2JpgXfHSHIA/oXR+P1oHcwIHNOn8Z2B9hF7AowCZiFFQbj/KySZi+lX9WMvwEQ+ARf+N7uNuHZtayXb//obqXSK/9tSCXeCTOAzJ6HbnJfQdSMAaDmS/ClK0Vb2cj78voOH6PYdcjZwhA+eV1BG7JVFmJZeoHqslKkABpnLq6omdDI+KhEKyhvuoISnMet5TQNl9TBpAxmgoAAxy0r9DDkahSQZ83TtqYMiVpmVAZ2Smm+77bUkJBZezKEBVpEY+Mswier/89HaYvV7ny9RlroHQW7tO9fJQEi/GX0J6B0F9P4/QPoXsH8ZlBY8S1iF2iBYvOzSRMS+O9K/YX4vzkdBdHdgL4t9epuvx+n4ruZT+Mj55oTcPsFfeir3At0rhKdYalIBj9NLxlj00738PuWHRPQPwpTttU6633/ykGcX0q10v77P5fXoFGn9uvuh+qaHYqwshKDJi+gcrYgNG6zUZlYjaC8b2qHuj65dD3yV+5K+4V9JuP9hdDon+MsZYMHQuh+py6CgBT8V6Ol2uCnR+OhX7C++OmjN5BH2jUCfqzfTrn4AHvpH3n1w6zMZkSG+zYeYFW80Xq8fWCdTNFea0aE6rufYm7KKGDocB/jqgudxspFSbmGqtL4zoHj+sPu/38ZmunQOmdj0r/wpSS7P5Rg49n18MexME1r9P8Z0DISyS7ywf8ZL/JSg+saaHMQBCB3HZHjOhs+Gkm2H/yAgIafrpxl0f7AXAu7+M62vjI7Gkuwughr2H2/wlo/vuC6jaQH71XBPo9v9ukYFWwHcQf1a6SWeofusekytrfnd+P5p/NP0AuxnQPp7Vg85B9u7f4y0160vWvvf8Zpey16X4+v0PW/iddfUsSCrfmeowdiX98VZ8ZoH797ei+tfE9+v3156vVSa+oS9Afb8I7W2l9rwjIJaOn9JvwV5DPoVP98FmUMNum7VHt8ZKMdogIaQvo1tOGenAaBIJgvq+MpePhLsQO+l/j7DmUel2B/Gc4/2WNNe3Lfwp0rv32paPl8Ze7JtUbcsB2pWfwsHvoIegEz+gvhHVJKxppFGN/wj6yhA8+Ss1JKO1+rHR/YzWlQX5THSKCAP4vJhV8ma+Cnul3fS98Etd17nCcIaxrHZv18Vpdf33KID690xVK988NlClAttk3hqLq1AnOXfu4R2DYRTqA0e1ouoKOgPtXHiaBoH3/CdH6X4yx/RX7A/47YR76Wwf8T67/FXj5iDaw1UdQx3jvTjMR8z9dG9vwlWvtqf91+K/H7Lunof4QtofYCZ9A/YR6fKzt/jfRSiPYN06A9fp/jugaAXaaYE3+E/aR2fxnrs+l2D+EewNEhH6LqQ/xlk/1VPymWvGUNhGzfOFSeU52vjN6RYvy0tuOnDzs+Mv6AyG/tmremOmzxm2SXLBgmFaNd38flEBulR0B2NLZcg/flMbJlv4y49fEgIJ4LpMC+ZvLpO0tXQ27GA5JS93CrbAHnhyj+4DH6Nizl/wGb5q1ruk24zre2M/tt+O54drweyhlv4ug7GiYX8Zf70Bfv4IbexMfFa5xgv+EdpHXSX3cwLLKN2kTVibRjo0Q5m5Sy6oRy8oKb2P3omMzFCFnCD33QSGvwpzDN0d72adt5fCHq5pdH+K7B7WuJzM9PS1CV9tO/W2Mj0fmvLzNeqlTjQ/Q/xnGMnUVZWj7bAStM/CFfQlS68VXNXNfgs8JXYyjB+YdZNld19fCGcQNPtZwQa/Exiv9jIGuoxMIdAVOOoI29PoX6T2/m7Afx+uqS0HHbfxl/R5/QdL+O97WgJth7TSGZUlgOA+vfYH46gW7C/QFL3900Nu4N0zsI9Y0AFCdR2Z1CgV4TepCuplOnwcNXX+jlT1pTexuDODgiGrv4y+wtCwHBhN+TR34KW8vsjQ6pjG87k+bqzDtMOm53f96r+3l6Or3sIfVnSjZc0dg3Z9S6y2Qgrh4Jbl2Q1IxT3LMw6YZ2nDdCtgYXjBVlu8QSFpffH8jyIDQNsSE+/54++PPjSzYlVMzL3+tDKK7X7NGyjLw3VhGK3IT0KtynErU+QVZyqHVG3ZTaYY+uYGJ0kacX5te8Oo+SC2iHdOhPzaoVQ75U39Behvqlsda2Kg2DLbxgg67VtSI2d/hq3O2w9qPP0/ToiPCmLTBnIzFjkcPbaCvLpUDSyUBgv7lQYI3277mVaVbJKyxnMY9jFWKFsYZn8xmuBkH6j1Xgo06ze5e21Flehk2cH25C9osxI8YoE8uAa9KVNa0mNq2h/NLk+byNSDLvdvm0p+wrUCXY1dewHn15ghVFWnj8dOIP9aqlRyYykgLRcpdKCe38ZNzrxgykvozy060CbhZLI7TrlLrOrEJBIuXx/or/ZrhP2ul6t81n/Nv+/LDxHf2/GTBne/n+v4yw+VL5VKCQD1MGFkfE+3b/Bb10uL4v0qZm8quvreM7pDWdXod84YFPwj6Wx+n4zoI5jVvMIP7A/H6JcbOHR9v4LPMK9+xu+MyRYPaIK5hAUvb74oZGf/Z+hXQf8EHQ38vY9GZ6/3t0NBTVdPoftl2/uk3CmRhCrbsW2gMTTFzdyTbLpYJijiKGmEUFOOBoFwYDRUnYSRIC5vQiksBpoICaPZ0ft0VlMw2XRGlzq7EkIhlahzqOR6pihHDRFTuWss7lNsm4/LI7oRy2I+FM0YaPRks2pfTQNFMOkitAfDazc6L/frKT8v/jOYb9pzEsT1UxKFoL0cqXeZeoU1LHXi43sbUNCPABOPEhnf/LdAaTCdjKuJRpJbjMwMReq7dfcMPAVkXpdBM/xnn0uNQQug9f2FLvsGEwYC0IDC+hPbmSNIDs3tjK2OOpiHp6D5HdMb8jLCR7Fsx02abB69v+wpgdegckILCDasJknb2MvXb6IFPUjR0C0BDTPzSQRg9cfHMtbRKeaNs+EwhG7ifog72bX7/uf50Q7K79JnlaIR5bRFZBei33G6dXVyG+swcO3Y/5PkH+kaqgYLbzq0c7kKusarBlqvq/nWE8zhYe38r5Ev0M0w7qUGDZTGZmu0Z54i7TbG0CvZS0vV6eFNhb6K0Sr+Vj74Qo5SHUPnT678xFc2/raToE+G3cvRvl7HobdH75t/kevv5ZK0vIvUZsDlDDsCorFYdlT8d1ruU+PRPAH4Q9hPsi0sEHTaj9/apbBIBeIvzl2CD+P9leVyYx7pfCPkw8ijU51C2PQfQzVeL06cXJxc+x4K9/QXQCt8Zt3Xl+n6+M0I4gWkI/TtHAz8ElDbKoobynrbB78KU9DQD5saCAXYy2dNn7LarGFJ7jKmSbIK2QEn1aHacMELcW19i+eVA6P8pFn4Uif3QX90F/urQC3kFud2CvLLWote46gai6/YX9cC8Zd3ozJCnfOgyEExjCO5vhxjiAeHBOtWg4C5xaGykhsuf3u5poNUG7mEWlMhmZ1pdv9C0BAFhHdBQRbtJxms8+X54EYNBfZGN3DlaOA5W81xHPUZiu+Ahfo//2+3CSEt/pTGbwuJ9LN8qWyqa+AlQwM4z5A42hE9RTtCZhI9/gRg3N7IErst46Zfjux39jL+V+a/oKUw6upboE3LUQznSjEgRMT0fMdpcyMWJnZ27obK7V7tK+FIvzWtCzoQ3Y1NcwfVLWs16NAbnzRqCD8IK/uNR8KPOW1UHzW/YC8ZyxlSBEuAWBgnDA92G/H/Cmgmh1pLAvuc2fVHRatC2WHn6iYR2+MogzLxVcqKTW7spoHnF4ynT9bx54YCkhaR5MfmOKnn0av0DO9bL2t8KaWlU+Yev0rGrd9vv8f7ex9h1wlr6fy3a1OjehpRX8Zz/FfvQ0MJH3L7ETIKHt0PxWi+/jtuPQn3S/sRlocR8xGviNJr0vE87JRg0f4RpJJ7Vqx9VjKPZRk8rZfQGazjLDWaou9ppDqwuEwYZ0dIYfMg0VT2vt/xlYEEgDMc8CKOlMOOvofDyiogoLjouXpDf1CUajaHQM5fjb75XIs6X1o3Ge1o2FJuRIw9C+FJc2yEkD7BjbL4ET+8497iA91GWo6y3sIs9JEt4IAtUWe0u5UlURFoqp3ClgdY2sLMYeVTxDb9IL4GaW5nrNWuk2lsbWsnDSlkc0OcDSfI5o/KS8YWhvy2v1+nyrnRYnkQKavlVTcgFvze1sGHtxDGe4rDFe6Rjo7AkAuwGx5Yz0d3oO7pv2XCivn2F+UMDQH8vxvJhH17KS7XjOvpux86rsfjuwKh8waqhF/GSKqHQlR1B3Ab+n8oKQ+ID0+uOiX4U0x3g7tittpZykGj2rjyZbhQK/wnv79FEW8W2m6fiaouug9jIx060xlg0bIeGs25VT8cT334Nj+M+bLodh0Jv3pmpv+M3z4xUuVRD6Tu1T5Pf33rl6P4jtaX5N7p0SCzC3vfu/xnWxIbfuHklhi8HB6iKdD9j8IdvX5EnhG9+l1+Tz/ze3qJ3++46glhuI77UrNjfZAl6G/paN47TcZ20E/LAIHSheUQpZo7pUF4KbcfoEJWPK4zLexk+82ZJnDLdcoZZuS3pgpywGVfChIupHCsBX/eh9g/PCWuerPxnQ76s2ETr7yGwcB/GTK2NJr/QGs4gNaTDJRBbM+M2MuwdC+iaT+UKZdt6drGzYiSrafuEegV3lPsBfuMxwRP32AkPQQ2hfx3GDZM3jkQ0g/8ZK8EjYQjIIEg2zL0BXujQEw2G0zlftG9B42ikwhayLuTThm+tWjxiEhy07n6L8f8su2xztQvx3ptbXY/CNNDReVfdeg9pyKbWgNsfxBLsv+Eb7HQG26dE/gusaH73+FONJ/0U0VOnNauhnT2NCDKXg07seQMD1pBDkF4Xy1v2m9kd0f11b5t6T0CzZWN+HlC935DgpmZoKNid3tXp+5eh093TtP0Wt/vd/Rdb+XMIfwlpIfs9FLY/4/v0UsXr/EW/wZB4gh5b960gpXAgXjovR0VrRASDxjqBwfr33XoMCRvUH37mK+Zf/PdA8wIDhlUhNZCS25XWKSClzDQtcXPU0A15QrLwyqkw3EByrP3/uh7DHBBW19eX1FpvIzKAu2929KfKpCfJf277IFIaEJivFWN1q3fLBDxFf5v+VbCn6vstK9sq9fyb3zsc7BnIXulEX28LFKon2m+jLLMd+/+gaf+3Htk3IZliVU33exn0t2/a97fbqInhrDZHMU/F+7Wi7Ga5H+H7vPQNgf4ih0RWNVZdR/okmbum/qPnDPpc4h/hC2gT9j2dPxlBzvtvDAuvNucxoKObHXQQ1Y0mBvp0TLwQaJtuz7Hr0X+WMGP+HvTKI3BkDOta/9DLGYM+v93/hH0BbaG/8F3v2OP8IW/lEBQ+32Cy+PnBj2P2T77GXo+dJ0+8oYLD7ritr264ztd2XDCtFpvN/BXu9+w+/wVS0YDngg9L0T/BH6b1IxHtbXxWnoJn+Wy/iO11+Mv9PXf+9DTa0ghybZe+nqEfboC2/4ihNjxrmjlv4U3iD7IYlLQY0DoK5v98Zre6XBcZIfnDMPxIksJxtQ8NpWLRSiok3pXkKMpIFS2EiIoeQdh936GdXP4mwYh24rcJjQQhxj0M8j+YI5l0RC3oF4Q6x0TuS0y9AU5/j92pa9/S2M9pj2aO95w58dRaKmy6fwpKIc4o8OOFidvlDf29x3YjiW/03Y+xlO7e/odD+wV3jd26GhUeVm3xHsfY+gpuBr2sJ26vvEBgjr62Hr4n37Lx9j7om/T8IfT3oL+J2P2/jOhaH2PyQfy7Kj8XWEPR7nMazQjpWfSnb5SBHQTBMMd1cR/mJePmBAbh6f6fju12Gmxz78JaNO3/JsX4Q39P38T2qovzX/EOv8drt0r/x9D1t3b+zfe3+K12v470BXRNbsVvgmzpNrd/hHp0AdzoP8I0EEY837Xb0ghsgyRaXowncJpjWNGuCGeJaKFPdxkdVaqDfCR9s+cgv8bxhLgE1S5Kes0T0JxJyLIGGj2Dtz9/xnDvcoE2S6Xa4REFfysfh/cSLSOEAZyCh1QoNDX3/m6A/hDRaOTbsC/H9ioV7/xnoR2cD2mBsCZMdj8ZtofvReXougW46MP9GUXxlga8rKLIKFoX3oXxdC2+VnxPeh/46+jX52PhDYXu/fwnf3/Eenr8FWnwP3u3xln3a7aVaD1WCrLPvj53/tHQxgnv+nm9j7HVrZ0BtIvhDSOIDQbofd/i6D9p/jtv77/Gbpz/2+tPx/bsm+/4z32mrfQf4mtNvf4S9n18mw/wj10+27LcnofhHsOx6Vj/fKx6F7e/8lv+L2hqq2v4Kr/rSnp3cnDsm2a9q7zGGWDB3G7ydtDFqJQi8IBgDikhZPWeC9LFpkcOB6mDDYjwphC5e0mqDQXKM+0xWgZMtBioTfUxShxT23XsZMEAsfTGTeWPKIerY/CFqTOIe3OGAo+uYVsDyQ9LOM9PvpZh07UBUPwjYbf3sfdY/GTCUbTGF7D/GSIqDvQXpp/wjvel9D8KcqRAThBtAWhMPsClfQpfGa2NCrQqCWh9n2J6HfZeP9vQ9+qwlsXnZf1bpCMn+3owQ9rRJ7/H9JJAZySP2/iNFdA9n4yj5BAe7Hv38RtymdL4Rou820D/v0/CWx+n83f4n2On+Psb/MvZH/4R6+hv/CHfb9/lp1fxnpMLS1r9ROknZpM2/CNFXQu/2EqXfaubF4e+/YL47ZWSV97fh7kW6JgVa16/qTok/H6ey2NfuOt+NOJSqk4W+Wt8yVsKdjhspxz5JEpXhPlQ7/z+mcIA7MzFYWiw8li0l+B0a6hTacKW+00x14IhzdeW/br4zpj4ibHAK17WvjPZ2Bs9rsvxmRJ7Fo2DZ40WPgo2W4gQDKAAAAAAEh4AwAYC+bq3zewKsSHy2p4XyeVbxkJ6DvKpZUvdTfdbxtwOOhL4bVCxDNiL+EbBsTJvSSY2ETIfu/cV4uE9fQvloPvvsUm7L1skkuK14BAp9B2f5CR82HGc5VfPlJTW7NdzIfxkGqNUWAwnJ9cPpLJFSDFjj0F11Rvvsf45AVjJ1VzRlYgD7Bd0YE+88neXkGfnrKm6tdpp2M3+Mq8jUyONhU9a0drR2190+fpONQuaKVlP7a9R1/f7+XvNydn8RYP7/H7+wmC2EgF6vL1b32Ud2PfYbbuuWv4zK/mAhV42wRDMwJrlOUD5YuZDfGS3u7oXH+Pw3cssfXE2i0/5V991CmHfhqn7ggFWX5GatbehKyxxQzLVInhHf4nt+uu9v919XQR6sT+uTk1VfL34NPn+r1r2MxrNgZHrpit6a/zMx1WjgK4uc9r+c3FAtZB0MmgEXrj/TKknueYWkT2xD7e3ko5y0tojmqCt7VW4ygyu5rkL7RlVytT7D4MyPbtYMlN+9ykEew5ND6YiNVjJ46//3/wrYOnF4rdAx8dZadveHf6Be+TfbGuY3slxPfIJMOrxHf19Vind8EXYDvwWP18TGUpsJ7D01lVvhHvyCu33EqMyjyk1A19hjfhp1AdZq+9XOvxlYAteLgUXHtIrGg9lmz3D6Q57S/idL78qBs81eTCV8nfiL3fLyG5To+zOEaCGjljMeF5cqiDhtsDACNXPDsf+U9igz6ZaXcJAjCQI3CYIhkU6TjD/4Z/D6zPWTbmqoVSys8qa4srynvyhBMwYJwXqnEsY8zDC+QtsjV7mYLVXL6u1sdVlEHqZ+7D8r6//SlgRbwf5D4/526jQNQCjn18veuX1fL2/j9LoD+/hH0Lr0PKQ1/mqqtq9WGvkrr4n13+P9kx0BemkOShDXv8bRPCN3aQJIcNbVjCgb21LI/JWHiSSuMjvqrF3r/aTybmB/Ub2FM0X8FvlWzxnVvGWaQXvqdMn/DkkyV0H+Aq/mY9hJ4YCXWhm8BxteCxrxd/hdsnPpJHb0L7GkwjkKAT22nhG/H4i6CQKn2RYzaSYJ/yVeToQC8x8Z6Hoe6A7Ff5PVcEOvX36sLKLX+n/8J+2n9oEmtLsrd7NT7iozBNs+iMjYHtYcEVMqHdqsMz1B55wf2uO/9Qm1oe2sOeWMxMDfxCRt/4luSFjbqeqrP9Fvcq4ineyDKcnXMCKd3XMYMwL6C7yG2ov9jEIW1qjdVYGntUgtf+vZLu/3f++i8/xeeHv83sshRnoLofQWwvi7Lt7Lzei8Zp+wF2XsPbVdJ9eYkvFZFNgcPdJuFemM0NgWnKID70H7QQ0mtnQ02HKI+M3437W19fx97zHdqxpfGY6OifKBgs9QA9tKtt/r5/CcfS5sW7UKT4NsfCYTsEE6ukUYaFOqGSV9LUw3GdxhM2WDJ30qH2/jt8me/4y3fAqDaz48Lf8I2nziDuQ03aH4T995O/fX4q/vosiaO199UZDPY0BAG2Tk/4EemNc2Pqz0TIETMbiFLglKaCWJaqbhlzCnlo/x0pCJBUPLn6mueNfYyP3zsjflDoLxIuIjHivKKh4hO1KvzXKtoSI94uZliPupat+fuM+XL8B/P47vydfYnXpfvqq5Peti/ivKIF/8Jb7fvIUE/sLoNvjO56WBvdTV62/xmgmT9k/16CjrrUUxGIJfGfr18X6D7HqPpvcVbPaqZik5R3ol6K1+P9h9hnQkQHpEGejB7wpzmwgdMPWKnOQ80TrK6mKI/cd/tZo6hVhElJJRgs+18fMMFWyhr3y7GTLUl7FvHxZ41Alusw0noAPaubmMouqP/2KvruM25+vNykVJE9mTGTRqM3Q2krI8uJNPb+M66A2TKi9ND6HRyd2BgNj7EhP55BT0uhXoBoTloG/gUSWQi6sv30lcZKGAlN/gbfvAaPOwP4/FH5axPUn+xY+ftzlS56dEHhevw7hNXUblDvvAUqZ55eQvM1M4+Dfuurii+W+x26zs5tYLSwInbejuZfJ+ocO7V08DAd6LDakXLWv3v4d88X76Aupap/hD37oLXx04PVdgfmp8Ie1uy7PxnQdB/vQL8TtfXIx3oCQL8tOFRPtb/J1+Jv75MIfH+x9h3t+M0H9UEstZGFP/oFXUzFAFkWAT63/ANdhls0rjZWRGL9dCkyXUxTSi37gJhmBdAWR2n/8Vv9Py3f0wjSNKWaH2B0JPQq0N9PENDPTHTAhGaZMnCmuaYfu3+V+XIrOxttf6gi8Ol6oQmhB3chnFPSuDA5ft8qVCStoz23Q3QczIfaen+RIQ2ET7tcIE9MBq8ZX387Pt/xkwYGymRWdRo5cjavqffl/tNnGc6BrYHdgghYnEHsJ/frEaSFOej4zwiW7oPJRvFJ8BnXOGp6y8KPqV4v7gJtvfi/8B7koZfc98x+IPQ758xy5xgNKmrjQwt74yIV17++Itt8kHoeLGozy4i77BfsB2jvc/6iFMhCjh72LaRcD2Ou4P1/AO+b0T4m/f+T38R0K+/hP0rL8Toeg9Afvt+vk7/Jf+bfUOfvfXE+0/8Z7Ht7LOGRFIUyX7Qyq6mdV45Org0JQxDxIJFlymv360tu9umcijPHMZ0VDZVEzl9eOyr9iCvznB1kpX7y9sZg4Kg9O6q6lWDtRD3BXe6eNp7iHDs+6AmbtoXuAxvez0Egkho/YhsjFFHRpO+gkD+9Jiho/rWVVWpsapsCCcFFo2Pr3+MiOGWmCY4lKQIdH6eEiSv0/j4vTJem8Z6aYfFujbB/OwQmlcrMOef1R/XQznEu+gVDYT2N7ykFh0vdhu6fk7/JvtrhHGjeyMLHiZcjoyTFwGv7BTvV9BhD5+n9UshCZfSg6Aru4uDYCz7jNldY7vMS2dzjjQNsS/19ymciKAZpYmlKX7o91x8vGf4qBkC6jY3GYBXdRvK4sZ+2nKjtzdKlcdi//2+cDhyEn3+F13p/k18smgX4v36LyaC1wjsLtdKwK2sdZbC66ofir+7v4ywFlxj9AX0V/EWC+WnxkiL9hZ4H2cQEaGLeNhPYH7/CFEx69lRfJY+ubv8Efe3CMEmntlvZKaXGZwQEWiVkoYaU4aapBPn/FyxwCXfcOxK36PfKjj8fwptoJXmSgHV1ztNn330cf5HlYtPh1HHMzPwUIikTHlDL9tuWcQ4mBYkDfQHRiYKWpng+Nzf44+FJ6Yi0JElttn+LcwcxM/nVD/aRqLSpjlFF5JJDJ0sRhTa5h2/9DKWWvSSPmM7XRvj5GW/qrD1pL6BcbNDGcwYaVVm/Z8qdC6nIc+hdjPGPCwPEK64KgzNFYWWj5iYcd3HXXSLg0Ql+L5X+VeGV+F4b3HHD/DtrIB6q03MF6vGky7LA1G1+n25lBWYQu1VWiyky8u4gQHD1tKj1Xbxx9YV/9oX5sV1GuG43zD8TofJcR6V1/biiHUKnFwDTLttwt5NV3jMtF+DP8vpGEWGdL4LKHIkNVPx2iNZdw3WPoXzy7f4y2wFcOy89/01fQp4+TvfFb8vZvDUvJXigmNqVjOMi4GAda5XiO/+uTNdS2iwHhSBq3rMqwel3Rh6Q9+Ak75x8+fzrljTzgdXI6Z8XiCAyU3949rj6W90mZPHTwQYkGSLbvLDSFE2xfQt+h92++hTgOByc3S4/8V7sL+Efcsfa/GdgLQHtfOGBWuUdlGCl9AXQfiOu1+TQO/ifVpP8IdPoBUH5brXyNoZs3GBwZSMDs5yDkGCKmgF8GjE79/ze/m78kR731y3/F+xndRiCCwZ7x78F2PnixIncbeSxYvZSfvEKWXkK8EimRIKaTUJIH2TIYqJKsu4QMyQRWoyj2Xxx4O2h/llIRczuos4SRmLZWQQcbFIj1VMM9LM6TfhKx0oEtmTtMbfAdmfFJhaMP77/mum/K3aOUyo7OuP43Iqg2R44W3YLLp28wl+CGOzKFFzxx98E+pOH7XvhC1+unxouveaM1+roP0C9QjvTI8EIkl4vwSzzF5k61f4J+iY27dKvhCnBI2cxR7hKjlC7AvGccBxudmnafIa/LHROMS9l7LqgXgTnCOYEJzgDCe88cXddmBC1j30AFv1Y4VE4RadY3/XP0Bmo1ABssNHrKRKZHklup1TQy0GlHY3DdAPLDfWveQF1UeZqLF3NXWzgtZR7PFWCClpu/5zwRIrmkFKR25ToHB0SqM3zU/5tj/GV7v1o1/mp/y6TC+Sui4w3ZdRfcoiiS9kKoz0B7pZAwaGgDBIZzOyMZYEmXFohDmIaX0Bnqe3yJ9YK9D75gQD+Cn7SU5y0u49V8T3r/Ee/QH4T6XpVuM9nsHadj7NhbjO/fmG43F/i4T9pAtZbtenZ8ZaoXQZK1jw1EpoMly1E7NC1vOLFnd5dqV2bGNQhavTeX0YhAuhFMpIF9xlPsKjGSEcfDk+Xq+VckzZNR/yoxxz751yseN72tmM1YSv+HJx+3jX6/tZdP2t8KUf7tB9j3JbYxRj9GPk91xfnKI/8u/6t7GY9X8rB69d8R8EDRQfjORm98KzoN/wV2IrPTuRKio71oVIziyoDgDpOuM7x4yOM0yuZwpABB3Xzf6dEw7cqAbD8RIBlk19wyQpJ7Hv/+gS9/V/Cw9r++ZDterGwurA13/wHM88+CLi4b0MH2I2uPQCuBeZu+vXN2O1plvfpith/brIx9lfKAD2rfie1Yp3ZfR8yy6texnrfSS9L4R5N0jXdVvuM2VgZgxQvsMM7sKLdjyodpdl6IMp/oiNgGgaB1ioQyGtgdVIqpeVDvfsG/1VSVCGvRIPX1NvZ6kr6STGe3qhTMUPKwzV05S/ZZH8FXvIl4b/ry+J2S4jg/S9rhqsWrf98EPRa0uEu06d9zEl7t9Cp5dBtyiTekMsMbGgcMXH9DegJwR9BkTr8dpscrLTaCf+Tvvx3mNoLQKMDlPrKltAjdiFQfiMPhMxMjDyjtDS/valJLhOvsHrhL0TKz3qbZ+VCugOgP+J73/RvY6NTFaXQ/wj7CedIfGF2XjLWwnOKIG4xmxJ7aBdC0R4KsH6KmkwXYbnLN0vhTu/QNKwfu/35RAfCXQGlQD+y3+Dm79cIbXR9mgueE+gdAyD/W47a7dbPvxlrQ/C9MNcDP8/YPe5jolht65N9cJ7+zk4Ifb75dP8f7yqRk2aFIOD/t4UlZPaK+fG25YIDaZNMNLNRxjui3O6Gv2/SGdMjY+YtYEoZeYuZNFl5HUp+u9fNk5fYH5O/xlOj9dhbQ6JiLwl33/CHT8vz/4ToF7jhLhZGEO97Akh8hGC4NrQR+/GR1AvCAQGEeW2I/Ozwl0ICWjxsOld9L+oigu9h2/HX7Xbr8daoBbu+/xfSfmh4zezfYHd7l/uSwP+bpVy+14S9+g9FLyM0XvuoiUf7bD222Jjl/k9h+Eul0/hTZXPjXaGl8Jr74js2bjfh0i9mTiLrNfoGh/BL0D7B5fXvvfXNb/QRtW7YyiVjjo0DJYrMzKS3WnapM1YyIxrHy5/Aedkuuv7lB0r9Byt030xLXYztWQ1NTzGCLPX/WMtv9lDWKGpcK2ieIPodyCDDkTP6vnb/l9Jd9Lm/L6HjRnyZq9KNFDsBtJy1FbT5yD4Qul3+wH4TtfzBhlWu/XGdgs0BWHVDowKyLXrwU0BHRp0nta4zpD+WjXGWDnw6JL+1nx8sIWv3SXoxFLX+EeYQsLYTbe3qELH7omG7AqXidLIK/TZjP0fl9h4S9yZ/6vtckTRd/4Tp+ZjrUVovjxby63P9AmpxsHu91MLs+a/XL3vmtf3ulXFb7bf2EKHzBgaYzfYxsJjptRlB/dj0fPOg5VJr02RplTGyqHndGkC4MMKEOhUYrUTMSk0aYa3pB+/fhC1Rq6GQ5Y/xHa7Xzdn8vteCfQLa7cxRXob98XbSZaCsdlRGMvZ+z6JIb0FfYkxGO2EWBv3dQyhAf2E0AAdTqVe4zfIIDOLaSHi9Woy1020rsHKXlwdED9oZ0T6TtI1O1tB2uahHYbfuko+ZUC8IS3Ztdh5sR0dKM9pttEjkMRPuhKOQraKfG6ScqXYOm1Ifxobb7zvMHZcsvT+XIlOSnPzqxnGCKra6bWx8iNHeSR0GQdwAD0CNH227oLvlhDUudNmhXf8dtelv+LuwtAjIr4+LoLXnQV4JfftvXCPsOOvL79eEdbZp0n96N4GjenSCmH0Z2fjgnQS7U13ULf6dnx3vvS+98XT/a0hnoit+2154Llz5+M9HeVJ25ZWOX9VaClQLzojqWRAAIf9rkb6ObjYmmM8H7uCqNMmjHhI8uTpD/Y7HXsZsXfeg7goa8eR/uxvniOU3s2aXcR6RSWg2DxMRR+1+bsr5uw93FDNCoCYF+9A/sI5j81JBQwaYCAJy/tZGFKAjgpoILxXdgdB/pe6Q/36t+qbGWRfZuUMBmDHoDjkaHFcsS+crI3tHkmQtfpjIO6ofkgkG/A3n6TqtnWIW0KxEdNQ+26UfF9HTEtqbw6F6+1H3AD2nqXmfJddVC8blF0xNZdQHkNME8jU6Opi/X9P42bBHGEQ/mqSWGhImiwJK7FYw1Y8dC9hsMsz6+bfqMmSrqEtoczYHHmwvJSe/0bBeMsoXrC3xirKj9LsEUa8ZfYs4WX/o0TOHOb/xGwmT2AvjQj0tdANlwr/Y/sNrOLdS9APhC9l+L0Lst8Vp06d7QplGe3mNx99d+GM8ODF+Ueo6/77v5Nhfvo2vFZUn2vF6HbY7Xzdv5fT8J2X2/lsfulBT84cI5KDe8y7ewhd+32/SfG4R6jp885L2/glpJbB9/koH1wlYLd/4jxkaWP/N7+EbfMssfGXeh+MyHLOwvotg/j+gfKSQLYbH4zLg+TKts7x1MhbmCAR25FL0v5BQyY0lT1PT3FUQzDRQDdUcKzYH16Ujars+KuI581dgWntPyvfV9ONqD7mPsJP6Nigd8Y4yYMuW7mvNuPwJaqrEz5izu0a2f9XXZd6jKkuEiNHGWxFmBA1Uxu2TiUW/MEGgL2jEF+KKwcRDzMCnVLX0vjJSTQwcbEIkiYQDT9Rv0krwzBHemU9MVw6OBegNLxmocXqb8SjNELpbM4gLQQNARyZM4Wh9y1+5LB583Ja+hg/rMx6K14zx84cF8qSNFyj/H76F6aBr4u3+14S9vZ3LWvit5QgDYfKve/jLs9jcxkpz3YDMCAJSL/+J7bXD8zx+Wl1wj1r165dFZeL3+35fS6CmLHegqB04eEuDag7exGUMBS+vv2NVLrqeTf97/ivQCvfxem+VLyq9eR+PoNjsCax9n/Gegdr0WgXaeIzCAsBNCbjMPH4KVX67XCkPV+p5zkcXdYigLvDDQF0B9aUjH3qv30fKQmtP3taqFJXtAQ9LA/vnpfVfO7KkidhQndGcEDo9+o648wvf5TFlel8XsH39zd+oTt30mPTWP2trsvqI7Iu3KCNPx9hMtzwOCHCBwHY0IsDAVaR4zYegLHRPpJmWfRZbix5eELAmui/LP4zt0bXv76m1YXwUdgXnNv8IbPvfpe9A/xlH6LrLDfdWMu/huSR4HQSWZRfx3oZ87oOhJ/gut2umzlXHdl6LZfH5L2fYXXN6C9+1SJCoU0cmNdSaSeplxpJbRgYCxJ3x9L7J9P46bH+j3/Lrl2CffInTv6Nf+O7H6A7BMvgm2V9APXxXQDIGh2MfP6jKRYUGsAAOM+h1eaiMnoV5fC4rKlG5/KxfsPc/b/CG+k39n5ffPCfIEBSc+NVeM9BWCK/kZGQOAoUITTb/cXYKvKS25UEfQBdqmgr6K1CMnu9g/lEB3GTggD/mSL7XuMzGuHwXQoudVXv8fqwFj/RZYz3qx5yDfpfE9i7XwhS9dfivUTmFe/4U7SHRchB+rbVsI4rlY2bOMmtsuxNbgwa6rOMOoJqPlOevi9jykH+CfZpewffCNn9mkl9R1vsK/v5NNpfLa96gnhdBDZpz9chLEyd6k3Ivn0iOELt69c8P4T9evcm/Ibmw9PCdB6C0A/kx/GCvUZxtoY1wM7SDvv37hbS5Bigeu//F+wrbG/hD0e58oEWkPcZYE8Imos25ArGEft+oKaWnd+wfvgq6qrPzhgPvQz0MefSlAxllbfHYDHEF31He92DKCAO0Nknx1H3o9AP9jqH7KOmjQfUIdD0D7UYZXj2M8xEeNDt21hc6ReIy8uyL0RCkZHYmMjMpuUJ7CKeiAhNx+EN+/mSpM3tAN5pzA3fwDv/2Y8TKZZQRM0CkN1g3np5bc6zlwTdzqWCA9zqXmNfBR6Bru+qnFUWx0/sfvvf0vCN/ZvsPoNXF3aQfvYK7QLMe83FQ2jYoFGwywUeC5I6pT17LkyojGSpWo36Ka8b95L164jq8v6+G/SXT/4Tvb99R/oDZd/47tc8rX8uzsPy0X95iVP3S/k7AwUKnaWM8b82HUkjD/2Lwn2GO3TJXIdny9mheayv8mvqrdQW6SNAc1Nz4UkSvVMXibiz7Qeh/3whZ+hfp+O979l+Ov36Av47YC7+Ot12NLYRvb9DvfbCNv7sei+M2Po7Eg+6d/FXcVuzmigXhGYC2p8+grAquhmPDeuxSwNhgFX4jRUUBwojBHRE6YFjQA8DirhQz9Ut+WyeFJSRDbN9+S84+jFgEJpAeLzS0mXG7WifoMXqJf1b0O2vnV93o2LHFXxkfgV30VDVxkoQzvkPSM7GEExjcRtlSUiMnFr84gjhEhLb+Ial4zNHQiiDcMGkBu9QKvYhQoLfZRBAs6uTrpDfvGaIxDQdkj05Xwzeb/GbDY3zG0mDHO8A33DfQNsX0RHHJ6F7RxqFOgIHgFARhLuws/IdvzFugx1khuU+i5q8lHy6T+KmhNDZG73FLZaNuxlha+qDLworEHFtZOqCN3d8v6fUbx4hOywfnIOS3KcHqxTTVf0072htAOMBoHMMLbyVa3xDD7Cbz03Uz+ey1/T27jJUGVtClJNkyNpWyNrEKTIXybe5MaJoDPHF9BSvtHu0HEXaif2A/vNtQD3OAF7RBR9/vT36BVo0B9kZouywrNjS2JvH6GanoashqEeXS/c+fzbLLwnseVne04odQ5FHSkZwPK36MurjN3RR8nZShkDJRGr8LbdpO9af9ahPvoP8I9el6Uq/ij+MzCswZHi5/oNlWw9wS+aFDps+I9B6F6LYrfxWi8y/x1J9B/TfoFlj9/e7pBGTVJjdef29R+uy7ATCrQvGWJNPvYTmgbveP2vGeiRUmoelvjEirDCgHN+VFG6sdLrefqM5wQWBuK5gQF0LHX5QJe0qGtXhSHlxHcj4IqoEisOV1J+zZ22N04wTRn+zdBre9H/e8vtrx9V4Q5SlvMv4Okk9XUf5SL6Wjr7GbQIQj1qpEwGgA7SU49Zfr/s5SXpVHQze6tuVrd1+XIv6CGSOv9jO+0kMHBr+l0FKJuOPyiUOFGwshxioP7tDKF8PZbKgT77jfIJeg+c4lYzV1/p7hD2b242hU/T0M7aqhL1iBUByqWxVCspa918bZX4cW2sIfa770H2Tv7f+M4IxkWEKW6EdSN/NVz+DjyuAo3NEvHCMhAUPBKNle8ag/lPeCE1qFKjSgeJyCEXKfncZaBKNBfrUK6L/1wev+h2NJtBC+YRtoPQOwpXVf4icTsYkMU2s64jS6X5uzlfKK1nYsXWxAMLH3t6/v3HVmRIpETf5d8I0qdLYFsJgrJo2g5iN+I92v4joOUQ06AXj+zofVr8Zlh9+gKx2/GdNvkSEN62k7L2KryqN/F3v7Cl+71GdmPiIYC5mK19WElpH7B+M5RgpW3CVm4Q4uqJ8eWSn9rfJGW8BoGNupaIdohIf2Vo5aONnO5G6q1GaZfqJUiEH1zEcxOH6jbP1KR0HzFx9ofuhs1b/+FJhqAZQgaXu+OhacRS5LceEd+wZTS0EELdgQFAvCE5LoIbJJBWm5EDvikaEB+FO0UloEOYeMU7VKuA3B7bK3uuJWWM2h7pwi7/7PmIYMBtNMG8Y0X7GePdx9iZHf+EqemWD8rckr97apOM7KnRjpeU5hMBt+L0PJHPokJXGWifpSWlxsMRZRB0qtcfcPyoLM3OW7CxktTMty2CJnCB9n+HWnt/x9rmaiZp8mWDZ/Gbs48P6E5EnQyFLseE7E/N0uM7k0h44oJ9F2MCSrfNpJewvCnUQfNbAwLYNotEJoGd3t5beUZRJ6QC3KVR9SuXIVF8Kz7CGNHMiXBpsbaH8ZlZ2OhZVMq/cZTT97XSLQRqijhxvscERX9BzQqr7/S+InT+13VkooF+Os2HR0Dqz64T6CsGHmJYvBbhmW4S0YxF6+O6m0eW8KnxnVSFh5pfjLkacBhbdn5jpk/mp3+eFFbwLgklZR8/F4U0fYxn9CiwMBwyi4n7PvhD4D7Nkeg6yPcuicZs56M7cQG8YL6FstntDkEDnyUiX1OpTUi0xlA8H5LHTNtlVex6AaXxsdaYEZGq1K0NEJqB4XDT8fAQ5ZbPcErFr/Tlb3Fpd8KYbBKyObbBHP2MbKzqtzQO/cKX1htNPo8NogPCsJP/lvtPRMypeK5TbQzbC9PbfqvRbhSzIJPG9LTYaIgxEpB8u4LaOwJHKxfLuEtAXul4zbH1zpPofV0IsLtsiqafY3HD4z2hi6dLGBcFD7AeBUNW//jLDjh8DMqkuuI70fxinjasrFwPAf32F8Eui3sV2E3xNTC5hrF+w/H702AjLR8wv3eMzKdgdiKorIzk98jHjKdeh1/p9jM7NDW0jvzGXYHH7k4Sr7e9ifdOOnD8fR9u3WxfJp8vy80omy/S8nf76XzbXpegV2y9916e+qRRPbpfzb9XhDuyYVATTGx2P2EZfsCug42J0YER6H4Uve/GE9tWUMN2+l4W3whGBcH5hfjut1JH9jNrf18puLPJ