{
  "name": "minimal-e2e",
  "schemaVersion": "Psych-DS 0.4.0",
  "@context": "https://schema.org",
  "@type": "Dataset",
  "description": "Minimal jsPsych dataset for CLI end-to-end validation testing.",
  "variableMeasured": [
    {
      "@type": "PropertyValue",
      "name": "trial_type",
      "description": "The name of the plugin used to run the trial.",
      "value": "string"
    },
    {
      "@type": "PropertyValue",
      "name": "trial_index",
      "description": "The index of the current trial across the whole experiment.",
      "value": "numeric"
    },
    {
      "@type": "PropertyValue",
      "name": "time_elapsed",
      "description": "The number of milliseconds between the start of the experiment and when the trial ended.",
      "value": "numeric"
    },
    {
      "@type": "PropertyValue",
      "name": "rt",
      "description": "Response time in milliseconds.",
      "value": "numeric"
    },
    {
      "@type": "PropertyValue",
      "name": "stimulus",
      "description": "The stimulus shown to the participant.",
      "value": "string"
    },
    {
      "@type": "PropertyValue",
      "name": "response",
      "description": "The participant's response.",
      "value": "string"
    }
  ]
}
